t,radius,set_speed_r,set_speed_r_filtered,meas_speed_r,acc_cmd_r,set_speed_theta,meas_speed_theta,acc_cmd_theta,set_speed_z,meas_speed_z,acc_cmd_z,acc_x,acc_y,acc_z,pub_vel_x,pub_vel_y,pub_vel_z,pid_r_P,pid_r_I,pid_r_D,pid_vtheta_P,pid_vtheta_I,pid_vtheta_D,pid_z_P,pid_z_I,pid_z_D,yaw_enu,yaw_target,error_yaw,total_yaw_err,yaw_rate,drone_z,target_z,r_lock_position,r_lock_active,r_pid_P,r_pid_I,r_pid_D,z_lock_position,z_lock_active,z_pid_P,z_pid_I,z_pid_D,theta_actual,theta_target,theta_lock_position,theta_lock_active,theta_pid_P,theta_pid_I,theta_pid_D,dt
40.011797189999925,7.578802463860345,0.0,0.0,0.020656775284695783,2.0902967727859596,0.0,0.01964303502956099,2.2499464609663002,0.0,0.02030530571937561,0.8386351812875902,1.9658849745333,-2.3594270368965393,0.8386351812875902,0.0,0.0,0.1489095708078677,1.089750520058205,0.0004953411454810022,1.0,6.556785322934966,0.002980356964970439,0.0,0.07716255905309526,0.0,0.761472622234495,-1.6125096959175609,-1.6982993187331834,-0.0857896228156223,-0.0857896228156223,-0.17617838494779128,15.784555435180664,15.780753135681152,7.578802463860345,1,0.0,0.0,-2.4542703308549467e-05,15.784555435180664,1,0.0,0.0,3.015639463273608e-05,-1.6982993187331834,-1.6125096959175609,-1.6982993187331834,1,0.0,0.0,-7.698531381557801e-06,0.001
40.111514249999345,7.579024517170498,0.0,0.0,0.020283451539483004,1.2262131997811636,0.0,0.018702694600704412,2.249949946698453,0.0,0.020806096494197845,0.2909845149481063,2.0760662106414642,-1.5019396336067312,0.2909845149481063,0.0,0.0,0.15001723869427316,1.1342607276905001,0.04167875438722884,0.05022756522239513,6.558854071878451,0.2,0.0,0.07752668532004518,0.0,0.2134578296280611,-1.6125096959175609,-1.6980977342473267,-0.08558803832976558,-0.08558803832976558,-0.13003642586969724,15.78923511505127,15.780753135681152,7.578802463860345,1,4.441066203053623e-05,1.5656513471555185e-06,-0.0012143691611795034,15.784555435180664,1,-0.0014039039611816405,-2.713159760682829e-05,0.0015370995031849944,-1.6980977342473267,-1.6125096959175609,-1.6982993187331834,1,0.00012095069151403237,8.905920044957748e-07,-0.00037977770104400543,0.04005726500054152
40.211763053999675,7.579069446759104,0.0,0.0,0.020120151585391162,1.2575041221196768,0.0,0.01604126629415889,2.2499574152589936,0.0,0.021280501037836075,0.13636748489371714,2.072969786072505,-1.5318032685881775,0.13636748489371714,0.0,0.0,0.15074033337755596,1.1528946652891578,0.10424879197908798,0.0003267131603785952,6.564709214152852,0.2,0.0,0.07767589940383193,0.0,0.05869158548988519,-1.6123351629923615,-1.697530779925195,-0.0851956169328334,-0.0851956169328334,-0.14027521212206154,15.792553901672363,15.780753135681152,7.578802463860345,1,5.339657975174106e-05,4.248437307818836e-06,-0.0019808497074478206,15.784555435180664,1,-0.0023995399475097655,-0.00010252849540125223,0.002568337904951562,-1.697530779925195,-1.6125096959175609,-1.6982993187331834,1,0.0004611232847929969,1.2210693906015237e-05,-0.0005686666958949631,0.03982687899951998
40.311678186999416,7.578523716402885,0.0,0.0,0.020367153379249377,1.2963544207668092,0.0,0.014560635770896857,2.2499608685394223,0.0,0.022422675043344498,0.09437410426143542,2.068583349449371,-1.5696565294933607,0.09437410426143542,0.0,0.0,0.14915345714018438,1.1517019034305227,0.14619853328661025,-0.0015739913347109034,6.567966601304028,0.2,0.0,0.07603846925810392,0.0,0.01833563500333149,-1.6123351629923615,-1.697199162385544,-0.08486399939318279,-0.08486399939318279,-0.14849721219842163,15.799917221069336,15.780753135681152,7.578802463860345,1,-5.574949149202979e-05,3.32562825879809e-06,-0.0022040696467628433,15.784555435180664,1,-0.004608535766601562,-0.00021079689578779932,0.002941609653983682,-1.697199162385544,-1.6125096959175609,-1.6982993187331834,1,0.0006600938085836283,2.8548852975331316e-05,-0.0005781251744206473,0.03793023300022469
40.41408245399998,7.573268077268449,0.0,0.0,0.02356725759659204,1.335358560660372,0.0,0.01658323263600497,2.2499483946281407,0.0,0.02296021394431591,0.07993398315118712,2.0631138002276996,-1.6090406182967254,0.07993398315118712,0.0,0.0,0.14857432201445853,1.1417352689095464,0.2,-0.006413020657747952,6.563516888200789,0.2,-0.0,0.07536846484208556,0.0,0.00456551830910155,-1.6123351629923615,-1.697534875278062,-0.08519971228570045,-0.08519971228570045,-0.16054912284455514,15.803605079650879,15.780753135681152,7.578802463860345,1,-0.0011068773183792403,-4.222061186041149e-05,-0.002538937296037524,15.784555435180664,1,-0.005714893341064453,-0.00043274380689191513,0.0032579431232259105,-1.697534875278062,-1.6125096959175609,-1.6982993187331834,1,0.0004586660730728997,4.974316637217056e-05,-0.0006148337335686056,0.03856709100000444
40.51141605399971,7.570058977529326,0.0,0.0,0.02540699723277196,1.3162266556791025,0.0,0.017887861077562895,2.2499399638974746,0.0,0.023577576503157616,0.06921484642790122,2.065134941712825,-1.59056597561369,0.06921484642790122,0.0,0.0,0.14744698043166934,1.135903524091763,0.2,-0.019719136983470845,6.560646705629362,0.2,-0.0,0.07432164235710703,0.0,-0.005106795929205812,-1.6123351629923615,-1.6977793296886436,-0.08544416669628241,-0.08544416669628241,-0.1690959277587359,15.808012008666992,15.780753135681152,7.578802463860345,1,-0.0017486972662037914,-9.878764726225513e-05,-0.0027420175140231793,15.784555435180664,1,-0.007036972045898437,-0.0006016158731800952,0.0033747853964527716,-1.6977793296886436,-1.6125096959175609,-1.6982993187331834,1,0.0003119934267238555,6.001764262351925e-05,-0.0006499494135581084,0.03891362299964385
40.61243785299939,7.5655906356405085,0.0,0.0,0.02801785556337135,1.3318242323676712,0.0,0.022584206989716617,2.2499163632979995,0.0,0.02393534779548645,0.0721636419210259,2.0616304550819216,-1.6079674419703096,0.0721636419210259,0.0,0.0,0.14660855042822196,1.1275141449463948,0.2,0.004242670820257629,6.550314744622624,0.2,0.0,0.07360392157964131,0.0,-0.0014402796586154133,-1.6125096959175609,-1.6987163341831004,-0.08620663826553976,-0.08620663826553976,-0.17674516848344102,15.811553955078125,15.780753135681152,7.578802463860345,1,-0.0026423656439673593,-0.000248413809494654,-0.0031126104523702324,15.784555435180664,1,-0.008099555969238281,-0.0009201774315445035,0.003509277748388258,-1.6987163341831004,-1.6125096959175609,-1.6982993187331834,1,-0.00025020926995020785,5.4081361818518376e-05,-0.0007917100301068601,0.04036203800023941
40.711697733999245,7.561631276485957,0.0,0.0,0.030194777686866545,1.3133998160153437,0.0,0.026216649622726663,2.2498953128130545,0.0,0.023888912051916122,0.07321934723152801,2.062741522519656,-1.5912716319348448,0.07321934723152801,0.0,0.0,0.14632438955621163,1.1205648167459499,0.2,-0.007255895498191159,6.542323370830002,0.2,-0.0,0.0734612865025773,0.0,-0.00024193927104929555,-1.6125096959175609,-1.6994824438165899,-0.0869727478990292,-0.0869727478990292,-0.18760386005124371,15.812629699707031,15.780753135681152,7.578802463860345,1,-0.003434237474877655,-0.00038105661275051857,-0.0033406003618718155,15.784555435180664,1,-0.008453750610351562,-0.0011515353531497154,0.003551298009850033,-1.6994824438165899,-1.6125096959175609,-1.6982993187331834,1,-0.0007098750500438732,3.771377131160811e-05,-0.0009010794281842775,0.04219777299931593
40.81283455299945,7.563629985362142,0.0,0.0,0.028182837004217212,1.337588882875707,0.0,0.029316194712599337,2.2498907649450373,0.0,0.021870452910661697,0.08633071959882337,2.0584793665852783,-1.6167297767778996,0.08633071959882337,0.0,0.0,0.14805543494739531,1.1256543308472675,0.2,0.011820924144197298,6.535504371632282,0.2,-0.0,0.07571098922204017,0.0,0.010619730376783192,-1.6125096959175609,-1.7001962039738903,-0.08768650805632916,-0.08768650805632916,-0.19766366306223837,15.806428909301758,15.780753135681152,7.578802463860345,1,-0.003034495699640694,-0.0005852204128217804,-0.0034585207106166563,15.784555435180664,1,-0.006562042236328125,-0.0014524543237006374,0.0034549002201461694,-1.7001962039738903,-1.6125096959175609,-1.6982993187331834,1,-0.001138131144424115,-3.2368172040688674e-06,-0.0010526940681871426,0.04040474300018104
40.913486335000016,7.565681672884162,0.0,0.0,0.026514508189825547,1.3352826409459895,0.0,0.030697457393165872,2.2498924184203553,0.0,0.0199869517236948,0.09156979950186894,2.0581959702502655,-1.615185739697655,0.09156979950186894,0.0,0.0,0.1499652801632851,1.13044263344015,0.2,0.00471545377345299,6.5324655937350355,0.2,-0.0,0.07798699706375417,0.0,0.013582802438114765,-1.6125096959175609,-1.7005570078392431,-0.08804731192168225,-0.08804731192168225,-0.20514261629024716,15.799002647399902,15.780753135681152,7.578802463860345,1,-0.0026241581952366035,-0.0006954821699570091,-0.0033411188788720274,15.784555435180664,1,-0.004334163665771484,-0.0015895674220537854,0.003264080207346054,-1.7005570078392431,-1.6125096959175609,-1.6982993187331834,1,-0.001354613463635834,-3.839687646699358e-05,-0.0011284079105887245,0.04043907199957175
41.01180712899986,7.571455651331267,0.0,0.0,0.022388951248230027,1.3548454072590606,0.0,0.03228131174636726,2.249904543492269,0.0,0.016518810763955116,0.09815293969692006,2.0549329819029114,-1.635520398003563,0.09815293969692006,0.0,0.0,0.15302279317964304,1.1425996620480072,0.2,0.012108112087905907,6.528981114157992,0.2,-0.0,0.08190238944941275,0.0,0.01625055024750731,-1.6125096959175609,-1.701011825718671,-0.08850212980111039,-0.08850212980111039,-0.21517905775983004,15.786676406860352,15.780753135681152,7.578802463860345,1,-0.0014693625058155746,-0.0008155877006348378,-0.0030464355227152536,15.784555435180664,1,-0.0006362915039062499,-0.001677490206292313,0.002879864720041674,-1.701011825718671,-1.6125096959175609,-1.6982993187331834,1,-0.0016275041912925837,-9.767697684453293e-05,-0.0012109843242911905,0.040022923999458726
41.11150149599962,7.573037628290671,0.0,0.0,0.02135450137735053,1.3566878258876176,0.0,0.03280571447526204,2.249907494230277,0.0,0.015719035640358925,0.09239503498066082,2.054447836816271,-1.6376598167220742,0.09239503498066082,0.0,0.0,0.15329871760619523,1.1459640367521455,0.2,0.01058167774568948,6.527827428154424,0.2,-0.0,0.08254780917950179,0.0,0.009847225801159027,-1.6125096959175609,-1.701163786779243,-0.08865409086168219,-0.08865409086168219,-0.22370503504118913,15.782692909240723,15.780753135681152,7.578802463860345,1,-0.0011529671139347997,-0.0008694035430696937,-0.002832336363043065,15.784555435180664,1,2.9468536376953124e-05,-0.0016859743292946166,0.002645963351803091,-1.701163786779243,-1.6125096959175609,-1.6982993187331834,1,-0.0017186808276357989,-0.0001433056445695604,-0.0012506478981083283,0.0400121559996478
41.21410351599934,7.574986842362993,0.0,0.0,0.020123953011340706,1.344233714825452,0.0,0.03470794977630861,2.249907793747375,0.0,0.01325842086225748,0.09590925084356011,2.055187898173547,-1.6264230887563087,0.09590925084356011,0.0,0.0,0.15458806418359913,1.150022945070723,0.2,-0.005948259139016065,6.523642510492121,0.2,-0.0,0.08479778599280499,0.0,0.011111464850755124,-1.6125096959175609,-1.7017045758653246,-0.08919487994776354,-0.08919487994776354,-0.23499388345419941,15.77824878692627,15.780753135681152,7.578802463860345,1,-0.000763124299470519,-0.0009154570826275896,-0.0025628557876605767,15.784555435180664,1,0.0018919944763183592,-0.001639108642568736,0.002302055734280579,-1.7017045758653246,-1.6125096959175609,-1.6982993187331834,1,-0.002043154279284742,-0.00022055044595787671,-0.001315034116799714,0.04176152199943317
41.311141818999204,7.573707060845336,0.0,0.0,0.021032880308221504,1.3445894578014195,0.0,0.03644150067563354,2.249898798604725,0.0,0.011156872846186161,0.0970013657184468,2.0543873900495075,-1.6277155358352,0.0970013657184468,0.0,0.0,0.15566632750012346,1.1475148769421375,0.2,-0.0031007603522043257,6.519828698513607,0.2,-0.0,0.08670567279236238,0.0,0.01029569292608441,-1.6125096959175609,-1.702162498984091,-0.08965280306653023,-0.08965280306653023,-0.24247438384595563,15.773092269897461,15.780753135681152,7.578802463860345,1,-0.0010190806030019317,-0.0009529942986852825,-0.0025330326282126023,15.784555435180664,1,0.0034389495849609375,-0.001555963631727592,0.0020208406590096315,-1.702162498984091,-1.6125096959175609,-1.6982993187331834,1,-0.002317908150544623,-0.00027987777963131604,-0.0013709074475683968,0.04063778399995499
41.413940150999224,7.572145538050164,0.0,0.0,0.022037645853795907,1.339380362389072,0.0,0.038081898379035195,2.2498891680850956,0.0,0.010717085562646389,0.08735460658594331,2.05431750689215,-1.6234902539579799,0.08735460658594331,0.0,0.0,0.1546370531171578,1.1445276484837974,0.2,-0.0053388079001188546,6.516219823566123,0.2,-0.0,0.08635198053270685,0.0,0.0010026260532364697,-1.6125096959175609,-1.7026200829861766,-0.09011038706861552,-0.09011038706861552,-0.2544799750731363,15.775120735168457,15.780753135681152,7.578802463860345,1,-0.0013313851620361918,-0.0010258756756765988,-0.0025819458435950298,15.784555435180664,1,0.0028304100036621095,-0.0014356916136041575,0.0017683997780095367,-1.7026200829861766,-1.6125096959175609,-1.6982993187331834,1,-0.0025924585517959286,-0.00037922108941700094,-0.001447020548963559,0.03879074300039065
41.51142499699927,7.570963734517942,0.0,0.0,0.022838735088936253,1.3403072366257007,0.0,0.03310745499868256,2.2499001273258337,0.0,0.008610735647380352,0.09100469966697336,2.055664562639402,-1.6225650302532042,0.09100469966697336,0.0,0.0,0.1543226495228938,1.142117479939161,0.2,-0.0019550205987469735,6.527163599002899,0.2,-0.0,0.08742714832530805,0.0,0.003577551341665311,-1.6123351629923615,-1.7017220029469113,-0.08938683995454966,-0.08938683995454966,-0.26089527663343803,15.774955749511719,15.780753135681152,7.578802463860345,1,-0.0015677458684805858,-0.0010865495169663706,-0.002651643301676774,15.784555435180664,1,0.0028799057006835935,-0.0013580019243179715,0.0015500602032382303,-1.7017220029469113,-1.6125096959175609,-1.6982993187331834,1,-0.00205361052823676,-0.0004356631339877892,-0.001389757026007657,0.0405021320002561
41.61191025900007,7.569679853188777,0.0,0.0,0.023557566874968346,1.3371009601184354,0.0,0.03131752032353461,2.249902536884824,0.0,0.008268416859209538,0.08548681288160756,2.0565747163290133,-1.6187652205266354,0.08548681288160756,0.0,0.0,0.15302892420671133,1.1398076937420158,0.2,-0.0028363014650526967,6.5311014552882245,0.2,0.0,0.08685630440850108,0.0,-0.001369491526893522,-1.6123351629923615,-1.7014198681905148,-0.08908470519815337,-0.08908470519815337,-0.26877309900616736,15.778244972229004,15.780753135681152,7.578802463860345,1,-0.0018245221343136109,-0.0011876089781092656,-0.0027407970196995472,15.784555435180664,1,0.0018931388854980468,-0.0012629225420701358,0.0013658851026400846,-1.7014198681905148,-1.6125096959175609,-1.6982993187331834,1,-0.0018723296743988537,-0.0005138042300507529,-0.001312710118502917,0.03829808899990894
41.71168317199954,7.565510760490197,0.0,0.0,0.026194640566875812,1.3211652448042428,0.0,0.025170697797091038,2.2499128495877563,0.0,0.0073520345613360405,0.08695657406422572,2.06062501694829,-1.6004405563299162,0.08695657406422572,0.0,0.0,0.15228980494011465,1.1318765688056232,0.2,-0.010795067723073582,6.5446244648464,0.2,0.0,0.08696266222726716,0.0,-6.088163041441071e-06,-1.6123351629923615,-1.7001934175375342,-0.08785825454517271,-0.08785825454517271,-0.2708549992830012,15.780074119567871,15.780753135681152,7.578802463860345,1,-0.002658340674029702,-0.001284787481998807,-0.002901794488874649,15.784555435180664,1,0.0013443946838378907,-0.0012220633397851254,0.0012516600636781733,-1.7001934175375342,-1.6125096959175609,-1.6982993187331834,1,-0.001136459282610458,-0.000549859672648299,-0.0011866423137993185,0.038049828999646707
41.81380876299954,7.559941559979079,0.0,0.0,0.029340020406350687,1.314593928429089,0.0,0.020012738061061557,2.2499223308621583,0.0,0.005910753738135099,0.09158452425586652,2.0632202773434583,-1.5916751486197223,0.09158452425586652,0.0,0.0,0.152349027598125,1.121892158472747,0.2,-0.007351207924706596,6.555971976265665,0.2,0.0,0.08786296431599393,0.0,0.003721559939872596,-1.6123351629923615,-1.6991023078060077,-0.08676714481364645,-0.08676714481364645,-0.2834430061321631,15.778804779052734,15.780753135681152,7.578802463860345,1,-0.0037721807762531867,-0.0014918890098128456,-0.003236772558587243,15.784555435180664,1,0.0017251968383789062,-0.0011646165437485486,0.0010587123657597739,-1.6991023078060077,-1.6125096959175609,-1.6982993187331834,1,-0.000481793443694567,-0.0005775242840593583,-0.0009653292476330022,0.04050133900000219
41.913855195,7.558839573190414,0.0,0.0,0.029849047635809155,1.314213288096328,0.0,0.017913859058312612,2.249929260089833,0.0,0.006057041231542826,0.08639240580817711,2.0640120920396603,-1.5903434616243781,0.08639240580817711,0.0,0.0,0.15190265553135973,1.1200040212438527,0.2,-0.005833187593508421,6.560589510071713,0.2,0.0,0.08750736857989014,0.0,-0.0011149627717130304,-1.6123351629923615,-1.698639504087183,-0.08630434109482144,-0.08630434109482144,-0.28734694436038055,15.783052444458008,15.780753135681152,7.578802463860345,1,-0.003992578133986235,-0.0016437771100758962,-0.003391356087899646,15.784555435180664,1,0.0014070510864257811,-0.001123838906930595,0.0009817765768724918,-1.698639504087183,-1.6125096959175609,-1.6982993187331834,1,-0.00020411121239969355,-0.0005864183667033643,-0.0008590118718805269,0.039619448999474116
42.01190099199994,7.555270769594108,0.0,0.0,0.03148036457794734,1.3079930089132312,0.0,0.012685782743626351,2.249947142454863,0.0,0.007237294223159552,0.07869879079033539,2.066751997911848,-1.5816586339454157,0.07869879079033539,0.0,0.0,0.1495405346655705,1.1144384428635628,0.2,-0.0064667341907498,6.572091277964023,0.2,0.0,0.08538194426544655,0.0,-0.006683153475111171,-1.6123351629923615,-1.6974207965872827,-0.08508563359492127,-0.08508563359492127,-0.2977797805115304,15.787983894348145,15.780753135681152,7.578802463860345,1,-0.004706338853247516,-0.0019156199110381654,-0.0036130329198330495,15.784555435180664,1,-0.0010285377502441406,-0.0011424366442645516,0.0010258573594008936,-1.6974207965872827,-1.6125096959175609,-1.6982993187331834,1,0.0005271132875404039,-0.0005703439366280778,-0.0006512037188212216,0.03870749399993656
42.11159550299999,7.55070300461861,0.0,0.0,0.033952609075029914,1.2889366250765235,0.0,0.010335327427850422,2.2499535260052466,0.0,0.00768265500664711,0.0797196475401263,2.0701018485259737,-1.561514274470921,0.0797196475401263,0.0,0.0,0.1484993726437522,1.1066580234681802,0.2,-0.017735545285392975,6.577262279658729,0.2,0.0,0.08449003058226305,0.0,-0.004770383042136753,-1.6123351629923615,-1.6968210041487348,-0.08448584115637336,-0.08448584115637336,-0.30483685554259415,15.791617393493652,15.780753135681152,7.578802463860345,1,-0.005619891848347081,-0.0021320239131888286,-0.0037939410539687356,15.784555435180664,1,-0.0021697998046875,-0.0011962108988168103,0.0010859173789759273,-1.6968210041487348,-1.6125096959175609,-1.6982993187331834,1,0.0008869887506691487,-0.0005488691653526383,-0.0005424829118437183,0.04062783299923467
42.212399162999645,7.5409806879282115,0.0,0.0,0.0392288147800259,1.2789217867048397,0.0,0.007292409200463473,2.249962064274971,0.0,0.00724725890904665,0.08397243221886505,2.0726915506005037,-1.5498128800774846,0.08397243221886505,0.0,0.0,0.14847294611641162,1.0898808502794397,0.2,-0.010966115605913637,6.583956699758981,0.2,0.0,0.08473541232441899,0.0,-0.000762980105553932,-1.6123351629923615,-1.6959681919055447,-0.08363302891318325,-0.08363302891318325,-0.31488703361709675,15.791918754577637,15.780753135681152,7.578802463860345,1,-0.0075643551864267525,-0.0025461327258806885,-0.004280323577954542,15.784555435180664,1,-0.0022089958190917966,-0.0012812947509869125,0.0010935790712141647,-1.6959681919055447,-1.6125096959175609,-1.6982993187331834,1,0.001398676096583218,-0.000498754897470787,-0.00039711522225286934,0.040582220000032976
42.311493359999986,7.536705488190955,0.0,0.0,0.04114676928838973,1.2816639293187706,0.0,0.005829108969194421,2.2499681758823815,0.0,0.007240236736834049,0.08373872723460109,2.073038882133985,-1.5516214143150382,0.08373872723460109,0.0,0.0,0.14828460970844864,1.0832140202281795,0.2,-0.0015545993131706073,6.587175960267773,0.2,0.0,0.08462662378296876,0.0,-0.000887896548367668,-1.6123351629923615,-1.6955277428542805,-0.08319257986191886,-0.08319257986191886,-0.32046445562829506,15.792518615722656,15.780753135681152,7.578802463860345,1,-0.008419395133878104,-0.002876928179122912,-0.004589182986209224,15.784555435180664,1,-0.0023889541625976562,-0.0013437380727094887,0.0010885522325399049,-1.6955277428542805,-1.6125096959175609,-1.6982993187331834,1,0.0016629455273417192,-0.00045653224578094003,-0.000323443611718678,0.039285646000280394
42.41336274199966,7.532230299317115,0.0,0.0,0.04276146780180109,1.2652640577345382,0.0,0.003808890324740492,2.2499783764257715,0.0,0.006978495977818966,0.08586025373176158,2.076086964898799,-1.534000894509424,0.08586025373176158,0.0,0.0,0.14851244565865662,1.0771662152112251,0.2,-0.011904083552354918,6.5916204412855715,0.2,0.0,0.0849203698085026,0.0,0.0009398839232589853,-1.6123351629923615,-1.6948776495759295,-0.08254248658356822,-0.08254248658356822,-0.32909617602165575,15.791668891906738,15.780753135681152,7.578802463860345,1,-0.009314432908645998,-0.0034023951885211175,-0.004876302176914556,15.784555435180664,1,-0.0021340370178222655,-0.0014329882157326154,0.001072303515799446,-1.6948776495759295,-1.6125096959175609,-1.6982993187331834,1,0.002053001494352369,-0.00038294839025434477,-0.00023450617217255466,0.03814031799993245
42.5113946649999,7.530625244688712,0.0,0.0,0.043331194190976245,1.2677470479333368,0.0,0.0035312655469649564,2.249979681109047,0.0,0.006928181741386652,0.0851246281138824,2.0759950011606167,-1.5361757380271928,0.0851246281138824,0.0,0.0,0.14844574338013727,1.0749424700401526,0.2,-0.007197077990086834,6.592231215796677,0.2,0.0,0.08491053698325036,0.0,0.00021409113063203052,-1.6123351629923615,-1.6947383268421659,-0.08240316384980417,-0.08240316384980417,-0.33657443034750983,15.791810035705566,15.780753135681152,7.578802463860345,1,-0.00963544383432673,-0.003781575199600735,-0.0050203693105815295,15.784555435180664,1,-0.002176380157470703,-0.001490502109164568,0.0010576880324768998,-1.6947383268421659,-1.6125096959175609,-1.6982993187331834,1,0.0021365951346105304,-0.00032706596403876014,-0.00019085289084136493,0.038673924999784504
42.613247471999784,7.532719775800812,0.0,0.0,0.041169735809233235,1.2769699664253382,0.0,0.00696293444408248,2.249961944399891,0.0,0.006054496858268976,0.08707944524718368,2.073973281265435,-1.5464850063926099,0.08707944524718368,0.0,0.0,0.1489201832341271,1.0806727582880253,0.2,-0.0037092281111492267,6.584681544223018,0.2,0.0,0.08571941182551486,0.0,0.001360033421668821,-1.6123351629923615,-1.6952971816689735,-0.08296201867661201,-0.08296201867661201,-0.34737032539679646,15.789759635925293,15.780753135681152,7.578802463860345,1,-0.009216537611906618,-0.004346432011519385,-0.004991195064010473,15.784555435180664,1,-0.0015612602233886718,-0.0015589449774886224,0.0009732799844215712,-1.6952971816689735,-1.6125096959175609,-1.6982993187331834,1,0.0018012822385259585,-0.0002516017676491431,-0.00023506685333576194,0.03907084399997984
42.71164381199924,7.533083671999889,0.0,0.0,0.039827610969840534,1.2838772253250261,0.0,0.01079547160451269,2.249942924058457,0.0,0.005771007388830185,0.08517245450263806,2.0720552145970856,-1.5547254030503375,0.08517245450263806,0.0,0.0,0.1484733871831091,1.0839592959665876,0.2,-9.754135876538737e-05,6.576249962470072,0.2,-0.0,0.08562142787656735,0.0,-0.00044897337392927776,-1.6123351629923615,-1.695967344511352,-0.08363218151899066,-0.08363218151899066,-0.35598289066522243,15.790956497192383,15.780753135681152,7.578802463860345,1,-0.009143758372091249,-0.0047059275772612374,-0.004896423043480561,15.784555435180664,1,-0.001920318603515625,-0.0016057622578980251,0.0009206373818869556,-1.695967344511352,-1.6125096959175609,-1.6982993187331834,1,0.0013991845330989072,-0.00021323012981614618,-0.00032011545377059157,0.040136766999239626
42.81192029899921,7.533728712890504,0.0,0.0,0.0388964138501977,1.2913409796150688,0.0,0.014428253856772611,2.2499255073610245,0.0,0.006254378240555525,0.07926567801053186,2.0700376713787176,-1.5635441641923469,0.07926567801053186,0.0,0.0,0.14714165081492772,1.0865185012896965,0.2,0.004794845991200325,6.568257841515101,0.2,-0.0,0.08453236354462332,0.0,-0.005266685534091458,-1.6123351629923615,-1.6966510083421824,-0.08431584534982095,-0.08431584534982095,-0.36937061129114646,15.7953519821167,15.780753135681152,7.578802463860345,1,-0.009014750193968269,-0.005250683615938502,-0.00477273922455852,15.784555435180664,1,-0.0032389640808105466,-0.0017114733401699127,0.0009127828473550767,-1.6966510083421824,-1.6125096959175609,-1.6982993187331834,1,0.0009889862346005973,-0.00016770418756010467,-0.00045487633937500575,0.03992999700039945
42.91323383599956,7.533127867544795,0.0,0.0,0.038714310452390654,1.2864596750125277,0.0,0.017245146175880043,2.24991137360807,0.0,0.0070009310729801655,0.07433064743303625,2.06976398794686,-1.559857916197049,0.07433064743303625,0.0,0.0,0.14542967071993068,1.086767446568314,0.2,-0.0003472498537597491,6.562060678413064,0.2,-0.0,0.08305724378817031,0.0,-0.008726596355134059,-1.6123351629923615,-1.6972104823618788,-0.08487531936951731,-0.08487531936951731,-0.3749597498191171,15.801339149475098,15.780753135681152,7.578802463860345,1,-0.009134919263110141,-0.005618587777727349,-0.004711272085165384,15.784555435180664,1,-0.005035114288330078,-0.0018310027184828808,0.0009632849148685547,-1.6972104823618788,-1.6125096959175609,-1.6982993187331834,1,0.0006533018227827814,-0.00014784068574534657,-0.0005579341011165403,0.040040623000095366
43.011718019999535,7.533043600073444,0.0,0.0,0.03812171187619462,1.2908117538047699,0.0,0.01945880644178946,2.2499015267862488,0.0,0.008325488306581974,0.0697265542858506,2.0684295569573803,-1.5651999974127058,0.0697265542858506,0.0,0.0,0.14243433020871668,1.0881566092433577,0.2,0.0026048799979447785,6.5571906258280634,0.2,-0.0,0.08046530514128082,0.0,-0.010738750855430221,-1.6123351629923615,-1.6977064042329804,-0.0853712412406189,-0.0853712412406189,-0.3846780779434219,15.812145233154297,15.780753135681152,7.578802463860345,1,-0.009151772757380173,-0.006165822691913264,-0.004644441087998157,15.784555435180664,1,-0.008276939392089844,-0.0021136477449589506,0.0011111756703960352,-1.6977064042329804,-1.6125096959175609,-1.6982993187331834,1,0.00035574870012182734,-0.00013098259365346775,-0.0006859422716264824,0.0396826959995451
43.11148525599947,7.532731640002557,0.0,0.0,0.03807766536538999,1.2883327752814164,0.0,0.019963283826579938,2.2498990863769652,0.0,0.008643999695777893,0.0757191125319317,2.0685533667565603,-1.5629888699617531,0.0757191125319317,0.0,0.0,0.14173720780761054,1.0881850201634378,0.2,9.484832132276989e-05,6.556080775581525,0.2,0.0,0.07985592486709958,0.0,-0.004136812335167884,-1.6123351629923615,-1.6978263972990255,-0.08549123430666405,-0.08549123430666405,-0.3907636155525461,15.815227508544922,15.780753135681152,7.578802463860345,1,-0.009214164771557698,-0.006546665701498033,-0.004606929618452399,15.784555435180664,1,-0.009128379821777343,-0.0023651792894269323,0.0012037664875448378,-1.6978263972990255,-1.6125096959175609,-1.6982993187331834,1,0.0002837528604947348,-0.00012316381347112084,-0.0007404305034101895,0.04231675200026075
43.21269630000006,7.533214241091048,0.0,0.0,0.036847453728490506,1.2970558143357458,0.0,0.023700926460521958,2.249884070894159,0.0,0.008611228317022324,0.07540581906901243,2.0661052910819295,-1.5733852179706955,0.07540581906901243,0.0,0.0,0.1409149563087723,1.0912418085681803,0.2,0.005739438139842633,6.547857961786852,0.2,-0.0,0.07938223679504998,0.0,-0.003976417726037551,-1.6123351629923615,-1.6986709505808477,-0.08633578758848603,-0.08633578758848603,-0.40404746031409283,15.817965507507324,15.780753135681152,7.578802463860345,1,-0.009117644553859527,-0.0070956762761685,-0.00453166871411012,15.784555435180664,1,-0.010023021697998047,-0.0027448101261981083,0.001247200713974321,-1.6986709505808477,-1.6125096959175609,-1.6982993187331834,1,-0.0002229791085985866,-0.00012497145411399213,-0.0008424805668357497,0.040472331999808375
43.31151529099952,7.533320823955719,0.0,0.0,0.03655115383017153,1.294685125665417,0.0,0.02483028648075293,2.249879525160017,0.0,0.00873227883130312,0.07629006406191187,2.065994307454961,-1.5715708618822244,0.07629006406191187,0.0,0.0,0.1406153963013514,1.0920586177430611,0.2,0.0025446657784829203,6.545373369742344,0.2,-0.0,0.07912987048202896,0.0,-0.0028398064201171,-1.6123351629923615,-1.6989311172436765,-0.08659595425131528,-0.08659595425131528,-0.41168236271111824,15.819091796875,15.780753135681152,7.578802463860345,1,-0.009096327980925346,-0.0074651759694186375,-0.004467276202406145,15.784555435180664,1,-0.010367774963378906,-0.0030204565252126697,0.001274316668750289,-1.6989311172436765,-1.6125096959175609,-1.6982993187331834,1,-0.0003790791062958654,-0.00013305991759393547,-0.0009052915634315238,0.03953857899978175
43.41411387299922,7.531759759250271,0.0,0.0,0.036881990435845675,1.2840392080687522,0.0,0.027817534398865952,2.249863781364456,0.0,0.00799238495528698,0.0825472484850304,2.0661901715423867,-1.5625306069242422,0.0825472484850304,0.0,0.0,0.14087527232851113,1.0907354771518352,0.2,-0.006799009378148863,6.538801424322496,0.2,-0.0,0.07972973242393448,0.0,0.002817516061095906,-1.6123351629923615,-1.6996667591958328,-0.0873315962034713,-0.0873315962034713,-0.4216293686640806,15.818157196044922,15.780753135681152,7.578802463860345,1,-0.009408540922014909,-0.008011668140013365,-0.004417329796049353,15.784555435180664,1,-0.010080528259277343,-0.003425935728566934,0.0012578942625851846,-1.6996667591958328,-1.6125096959175609,-1.6982993187331834,1,-0.0008204642775896165,-0.00015989518576069628,-0.0010147900762229485,0.04016335799951776
43.51144319899959,7.529035036387513,0.0,0.0,0.03827100234783426,1.2813102614780718,0.0,0.029774846543307913,2.2498486508275684,0.0,0.007206696551293135,0.08222280328917418,2.065779667325261,-1.5608104637864162,0.08222280328917418,0.0,0.0,0.1407791871312302,1.086354932017748,0.2,-0.005162420222390122,6.534495337604723,0.2,-0.0,0.08014349434796224,0.0,0.002079308941211946,-1.6123351629923615,-1.7001450000439893,-0.08780983705162804,-0.08780983705162804,-0.42904827495806497,15.81820297241211,15.780753135681152,7.578802463860345,1,-0.009953485494566473,-0.008401781110003196,-0.004485970269557809,15.784555435180664,1,-0.01004962921142578,-0.003692289656666913,0.0011817037155057004,-1.7001450000439893,-1.6125096959175609,-1.6982993187331834,1,-0.0011074087864835214,-0.00018745855308168716,-0.0010911710050977342,0.03991632199995365
43.61169448199962,7.525967597933222,0.0,0.0,0.039627227716454064,1.2740627380973866,0.0,0.031477911919296254,2.2498342562112534,0.0,0.00673181377351284,0.08127050647569994,2.0659916582144877,-1.5545637681414055,0.08127050647569994,0.0,0.0,0.14052757471685534,1.0817601441342959,0.2,-0.007829064714136516,6.530748593777549,0.2,-0.0,0.0802774565660055,0.0,0.0009930499096944473,-1.6123351629923615,-1.7006009447509833,-0.0882657817586221,-0.0882657817586221,-0.44091552821488966,15.818351745605469,15.780753135681152,7.578802463860345,1,-0.010566973185424723,-0.009022185064301911,-0.004628562534612588,15.784555435180664,1,-0.010138893127441406,-0.004096117259196629,0.0010842946164901577,-1.7006009447509833,-1.6125096959175609,-1.6982993187331834,1,-0.0013809756106799576,-0.00023890102119331812,-0.0011827532108003994,0.03882594300011988
43.7115482829995,7.526617651845849,0.0,0.0,0.038708385776480066,1.2816834401035617,0.0,0.033907054222198696,2.2498256205647627,0.0,0.0063750725239515305,0.080679179486975,2.0640833332425457,-1.5633258639885876,0.080679179486975,0.0,0.0,0.14028725819256196,1.0840526258261818,0.2,-0.002521935387769356,6.525404480711163,0.2,0.0,0.08034731140116626,0.0,0.0003318680858087492,-1.6123351629923615,-1.7011853960219423,-0.08885023302958084,-0.08885023302958084,-0.44495447332208865,15.818799018859863,15.780753135681152,7.578802463860345,1,-0.01043696240289922,-0.009450657559158165,-0.004636741242401499,15.784555435180664,1,-0.010273075103759766,-0.004377280171650347,0.001020613887705155,-1.7011853960219423,-1.6125096959175609,-1.6982993187331834,1,-0.0017316463732553356,-0.00028629430243840503,-0.0012666764739172449,0.04177530899960402
43.81168643899946,7.525457320774502,0.0,0.0,0.038576361715230975,1.2831841701363176,0.0,0.03697219483328386,2.249810476267355,0.0,0.0062342118471860886,0.07873736424289451,2.0626034778479236,-1.566485137746421,0.07873736424289451,0.0,0.0,0.13962516750280413,1.08384212877753,0.2,-0.0008396011823263515,6.518661171366777,0.2,-0.0,0.08003457339337082,0.0,-0.0012972091504763025,-1.6123351629923615,-1.7019963793140989,-0.0896612163217374,-0.0896612163217374,-0.4596788833034978,15.82070541381836,15.780753135681152,7.578802463860345,1,-0.010669028617168586,-0.010073669066037802,-0.0046315072307689465,15.784555435180664,1,-0.010844993591308593,-0.00479340486625426,0.000966510566379742,-1.7019963793140989,-1.6125096959175609,-1.6982993187331834,1,-0.002218236348549274,-0.00036701744273407626,-0.0013770614087354324,0.03797747799944773
43.913552690999495,7.529274265291215,0.0,0.0,0.03568982299983264,1.3042984086608709,0.0,0.03503147934952619,2.2498339458421417,0.0,0.00739366514608264,0.07070678352290853,2.060333757612979,-1.586811876039275,0.07070678352290853,0.0,0.0,0.13815497388496933,1.0921112076853128,0.2,0.01202420989538553,6.522930745431043,0.2,0.0,0.07845678524333201,0.0,-0.007750001720423479,-1.6123351629923615,-1.7017007107010007,-0.08936554770863925,-0.08936554770863925,-0.4637115350814797,15.825874328613281,15.780753135681152,7.578802463860345,1,-0.009905639713826098,-0.010480840828589175,-0.0045010136962854415,15.784555435180664,1,-0.012395668029785156,-0.005112478876253018,0.0010147990587648036,-1.7017007107010007,-1.6125096959175609,-1.6982993187331834,1,-0.002040835180690381,-0.0004231530530698159,-0.0013958121495043737,0.03817665400038095
44.011559032999685,7.531483475604907,0.0,0.0,0.033653364013536816,1.301582654788039,0.0,0.03391419502531853,2.2498484592372656,0.0,0.008937778882682323,0.06726733954324153,2.060845276400126,-1.5839356816224157,0.06726733954324153,0.0,0.0,0.1359569026471221,1.0980355180905752,0.2,0.0033944214152832816,6.5253887709443,0.2,0.0,0.07621147425866386,0.0,-0.008944134715422321,-1.6123351629923615,-1.7016106618616336,-0.08927549886927189,-0.08927549886927189,-0.4756893619575767,15.834131240844727,15.780753135681152,7.578802463860345,1,-0.009463797651087624,-0.011053517419058117,-0.004243532915892627,15.784555435180664,1,-0.014872741699218749,-0.005668573542435092,0.0011822005177166103,-1.7016106618616336,-1.6125096959175609,-1.6982993187331834,1,-0.001986805877070097,-0.0005026734997087348,-0.0013731759307047348,0.038600218999818026
44.111645162999594,7.53288000613706,0.0,0.0,0.032603791622466786,1.3115097501722612,0.0,0.03452954931835024,2.249850549294576,0.0,0.009580487385392189,0.0670745962362364,2.059310696308261,-1.5940905793048266,0.0670745962362364,0.0,0.0,0.13520666299972747,1.1012133509779454,0.2,0.01013812111539308,6.524034991499629,0.2,-0.0,0.07537570536860116,0.0,-0.008301109132364766,-1.6123351629923615,-1.7017623283610348,-0.08942716536867312,-0.08942716536867312,-0.4845181188054852,15.840696334838867,15.780753135681152,7.578802463860345,1,-0.009184491544657015,-0.011437704680751712,-0.004104823719782449,15.784555435180664,1,-0.015801143646240235,-0.006089662279584483,0.001289097897492723,-1.7017623283610348,-1.6125096959175609,-1.6982993187331834,1,-0.002077805776710839,-0.000558476827401551,-0.001369096070787897,0.04076117200020235
44.21324767999977,7.536128676086234,0.0,0.0,0.030136664747985785,1.3137386374223028,0.0,0.036433227760294826,2.2498543050393787,0.0,0.010744483210146427,0.07074539182739276,2.0582205525479047,-1.5973358314486754,0.07074539182739276,0.0,0.0,0.13383457210742394,1.108598590340691,0.2,0.004963911542784703,6.519846898927352,0.2,-0.0,0.0738540533383665,0.0,-0.0031086615109737425,-1.6123351629923615,-1.7022650734802327,-0.08992991048787147,-0.08992991048787147,-0.49595764827509364,15.842942237854004,15.780753135681152,7.578802463860345,1,-0.008534757554822293,-0.011950796922032072,-0.003816744377281734,15.784555435180664,1,-0.01751604080200195,-0.006786622513323597,0.0014947816555676513,-1.7022650734802327,-1.6125096959175609,-1.6982993187331834,1,-0.0023794528482295797,-0.0006501924694567939,-0.0014116445850819656,0.040912218999437755
44.311584661999404,7.536107352571614,0.0,0.0,0.029973888732996425,1.306244657862124,0.0,0.03618443570829177,2.249856081104071,0.0,0.011248089373111725,0.06825617842107262,2.059155080690878,-1.5899710203457325,0.06825617842107262,0.0,0.0,0.1334731376343276,1.1091544410500622,0.2,-0.0030835218737439436,6.520394241441759,0.2,0.0,0.07333502895672953,0.0,-0.005078850535656907,-1.6123351629923615,-1.7022962828809198,-0.08996111988855837,-0.08996111988855837,-0.49980067819836177,15.848055839538574,15.780753135681152,7.578802463860345,1,-0.008539022257746253,-0.012292307693870982,-0.003703766655739717,15.784555435180664,1,-0.0180084228515625,-0.007262291791354886,0.0015733502014461688,-1.7022962828809198,-1.6125096959175609,-1.6982993187331834,1,-0.0023981784886418557,-0.0007156521275932587,-0.0014331226978579498,0.0412373059998572
44.41451382899959,7.534305745860206,0.0,0.0,0.030871241560280413,1.3036988545090884,0.0,0.034013448724485335,2.2498606324952437,0.0,0.013603436760604382,0.05773526924605574,2.0600438564287606,-1.5867333986811794,0.05773526924605574,0.0,0.0,0.13066053215532009,1.1064243821002993,0.2,-0.0028790805174070478,6.5251704128061325,0.2,0.0,0.07023425723682943,0.0,-0.012498987990773685,-1.6123351629923615,-1.7019494503787618,-0.0896142873864001,-0.0896142873864001,-0.5119045611589454,15.85526180267334,15.780753135681152,7.578802463860345,1,-0.008899343600027799,-0.012812867486848099,-0.0036836807157679804,15.784555435180664,1,-0.021211910247802734,-0.008056445731967449,0.0018078793517858037,-1.7019494503787618,-1.6125096959175609,-1.6982993187331834,1,-0.0021900789873470217,-0.0008039662755763024,-0.001392240937557461,0.04060579399993003
44.51142175899986,7.533425731292024,0.0,0.0,0.031308283854497264,1.3066855549842464,0.0,0.03372679130541362,2.2498598342914162,0.0,0.01444964949041605,0.063722537755776,2.059696851283885,-1.5896368435506076,0.063722537755776,0.0,0.0,0.12966516860770733,1.105010106396917,0.2,0.0015244553350783154,6.52580105912809,0.2,-0.0,0.06912931147037477,0.0,-0.0054067737145987735,-1.6123351629923615,-1.701921533013778,-0.08958637002141678,-0.08958637002141678,-0.519338817156298,15.864563941955566,15.780753135681152,7.578802463860345,1,-0.00907534651366433,-0.01317353437657262,-0.0037194495772798104,15.784555435180664,1,-0.022499656677246092,-0.008652557493388622,0.001983309080884178,-1.701921533013778,-1.6125096959175609,-1.6982993187331834,1,-0.002173328568356769,-0.0008615470084565642,-0.001368258646206368,0.038970125000560074
44.61164919299972,7.539701902529529,0.0,0.0,0.026883232548410702,1.328639816423362,0.0,0.030779524091449264,2.2498902538701695,0.0,0.01903555542230606,0.03526944229493857,2.0577207193092315,-1.6103028775888648,0.03526944229493857,0.0,0.0,0.1235446905375334,1.1179103746754033,0.2,0.010603789684317078,6.532285046998812,0.2,0.0,0.0627054810691364,0.0,-0.027436038774197823,-1.6123351629923615,-1.7013850325973991,-0.08904986960503791,-0.08904986960503791,-0.5287934340650583,15.882253646850586,15.780753135681152,7.578802463860345,1,-0.007820112266163193,-0.013667783421415112,-0.0034992822715015502,15.784555435180664,1,-0.02930946350097656,-0.009707142779767896,0.0023969063330180917,-1.7013850325973991,-1.6125096959175609,-1.6982993187331834,1,-0.0018514283185294465,-0.0009396077750664011,-0.0012968948849654076,0.03936642499957088
44.71122452700001,7.54042539277441,0.0,0.0,0.026332380283928203,1.3254443683667856,0.0,0.030504749570834107,2.249893472499982,0.0,0.01999497227370739,0.04469201973131522,2.0581998449301473,-1.6070584337735734,0.04469201973131522,0.0,0.0,0.12227743224132151,1.119722254450095,0.2,0.005598707119605715,6.532889550944166,0.2,0.0,0.061369475980568466,0.0,-0.016677456249253243,-1.6123351629923615,-1.7013478039774248,-0.08901264098506356,-0.08901264098506356,-0.5291327325338105,15.887961387634277,15.780753135681152,7.578802463860345,1,-0.007675414217187005,-0.013982203145414044,-0.0033456445887291965,15.784555435180664,1,-0.03102178573608398,-0.010522325437348885,0.002663944696355409,-1.7013478039774248,-1.6125096959175609,-1.6982993187331834,1,-0.0018290911465448367,-0.0009893904275232385,-0.0012581183104231253,0.03933357499954582
44.8121310509996,7.543919484377886,0.0,0.0,0.024000460135567423,1.3228820607591734,0.0,0.031614816402705526,2.2498994196395734,0.0,0.022155722603201866,0.05067625114219576,2.0581887490684028,-1.6049683543239002,0.05067625114219576,0.0,0.0,0.11961958756039635,1.1268889229044803,0.2,-0.004139352506351462,6.530447403914048,0.2,0.0,0.05847831897431669,0.0,-0.00780206783212093,-1.6123351629923615,-1.7015662538510339,-0.08923109085867242,-0.08923109085867242,-0.5293113112047605,15.899003028869629,15.780753135681152,7.578802463860345,1,-0.006976595896491845,-0.014406170940877778,-0.0030734388673861373,15.784555435180664,1,-0.03433427810668945,-0.011864354347777653,0.0030567333101635973,-1.7015662538510339,-1.6125096959175609,-1.6982993187331834,1,-0.0019601610707102868,-0.0010664172077019876,-0.001253991452286864,0.03794234500037419
44.913744202999624,7.546201683155497,0.0,0.0,0.022346898924010834,1.3322829634001694,0.0,0.03340546191260182,2.249901074936476,0.0,0.023859193548560143,0.0437356247832454,2.0562542478965367,-1.6151938612977998,0.0437356247832454,0.0,0.0,0.1169525097242968,1.1318642411745325,0.2,0.000270843208821718,6.526507983792277,0.2,-0.0,0.05585598970544199,0.0,-0.012120364922196593,-1.6123351629923615,-1.702006130935542,-0.08967096794318064,-0.08967096794318064,-0.5306387601991902,15.909231185913086,15.780753135681152,7.578802463860345,1,-0.0065201561409695685,-0.014668886525103368,-0.0028916300623977407,15.784555435180664,1,-0.03740272521972656,-0.012848457565783393,0.0032975548763261265,-1.702006130935542,-1.6125096959175609,-1.6982993187331834,1,-0.0022240873214152135,-0.0011244011543520228,-0.001285266069105242,0.040165024000089034
45.01162741299959,7.554678418493452,0.0,0.0,0.01693116054195199,1.3695691409464836,0.0,0.03367647157372412,2.249924526006917,0.0,0.026440950110554695,0.03746397242370209,2.0512811164831075,-1.6523092282379095,0.03746397242370209,0.0,0.0,0.11398830934874289,1.1483518642274133,0.2,0.021067157193812955,6.525911762537807,0.2,-0.0,0.05252841554291292,0.0,-0.015064443119210827,-1.6123351629923615,-1.7020776064783079,-0.0897424434859464,-0.0897424434859464,-0.5307770288392868,15.921148300170898,15.780753135681152,7.578802463860345,1,-0.004824809073378589,-0.014983458224232303,-0.0024316836640426924,15.784555435180664,1,-0.040977859497070314,-0.014439180944791661,0.003664115217400037,-1.7020776064783079,-1.6125096959175609,-1.6982993187331834,1,-0.002266972647074672,-0.0012137418595356718,-0.001314594070673117,0.03961083099966345
45.11165130899917,7.5600996522645865,0.0,0.0,0.013619997846811307,1.369139801506135,0.0,0.03423665905472996,2.249938320492579,0.0,0.027828959748148918,0.0401451687368618,2.0510476722686923,-1.6522619913834506,0.0401451687368618,0.0,0.0,0.1122010369346851,1.1586778724350297,0.2,0.01030688497418283,6.5246793500795945,0.2,-0.0,0.05062324631192171,0.0,-0.010478077575059903,-1.6123351629923615,-1.7022612075281303,-0.08992604453576902,-0.08992604453576902,-0.5309955240888924,15.928444862365723,15.780753135681152,7.578802463860345,1,-0.0037405623191517634,-0.015148275264010247,-0.002073806890038307,15.784555435180664,1,-0.043166828155517575,-0.015614738975775914,0.0039051329640337204,-1.7022612075281303,-1.6125096959175609,-1.6982993187331834,1,-0.002377133276968113,-0.0012781790527665656,-0.001334151364745835,0.04018035599983705
45.21356614099932,7.571196175051703,0.0,0.0,0.007082774961825605,1.3893749223469087,0.0,0.03018396324911553,2.2499717632175673,0.0,0.029805170372128487,0.036584438816302564,2.049717549548097,-1.6707464131930347,0.036584438816302564,0.0,0.0,0.10985102879670991,1.179113994912521,0.2,0.010140593524611902,6.533595280851946,0.2,0.0,0.04802751505474885,0.0,-0.011443076238446289,-1.6123351629923615,-1.7014898964698828,-0.08915473347752112,-0.08915473347752112,-0.5286011460736989,15.937968254089355,15.780753135681152,7.578802463860345,1,-0.0015212577617283785,-0.015287037853452501,-0.0014346639241158525,15.784555435180664,1,-0.04602384567260742,-0.01740627220996507,0.004209338591502504,-1.7014898964698828,-1.6125096959175609,-1.6982993187331834,1,-0.0019143466420196375,-0.0013637910864533968,-0.0012846109317756673,0.04099242900065292
45.311683074999564,7.574308689319643,0.0,0.0,0.005305613120990505,1.3798016305591163,0.0,0.028735996001396022,2.2499798711560772,0.0,0.030406152829527855,0.0424709031509283,2.0514296206275864,-1.6606921665115637,0.0424709031509283,0.0,0.0,0.10919089650025582,1.1851116100839814,0.2,-0.005419000360965316,6.536780808796929,0.2,-0.0,0.047270846202436774,0.0,-0.00479994305150847,-1.6123351629923615,-1.7012151038515888,-0.08887994085922735,-0.08887994085922735,-0.5303452593598557,15.942079544067383,15.780753135681152,7.578802463860345,1,-0.0008987549081403757,-0.015323139223049629,-0.0010428351002633941,15.784555435180664,1,-0.046971702575683595,-0.018664118132831743,0.004381973355475756,-1.7012151038515888,-1.6125096959175609,-1.6982993187331834,1,-0.0017494710710432404,-0.0014106398258692027,-0.0012127021996063427,0.04025158999957057
45.41419430799942,7.588897475068718,0.0,0.0,-0.002668660907862699,1.4213446528360048,0.0,0.023851340758707394,2.250008387402899,0.0,0.030051568523049355,0.046449262647766595,2.0477594822328133,-1.699835129785973,0.046449262647766595,0.0,0.0,0.10876845636683691,1.2104034045738963,0.2,0.010866285270731094,6.547527050330844,0.2,0.0,0.04723013270627253,0.0,-0.0007808700585059304,-1.6123351629923615,-1.7002131220053456,-0.08787795901298434,-0.08787795901298434,-0.5279980463741646,15.94308853149414,15.780753135681152,7.578802463860345,1,0.002019002241674528,-0.015253413130445058,-0.00031774824743881046,15.784555435180664,1,-0.047559928894042966,-0.02054476588288976,0.004481445066440043,-1.7002131220053456,-1.6125096959175609,-1.6982993187331834,1,-0.001148281963297304,-0.0014619782505835028,-0.0010643592040418073,0.04033168800015119
45.5114298819999,7.59226578184176,0.0,0.0,-0.0044169746571067325,1.4346520279906798,0.0,0.023056678752221144,2.2500134137513954,0.0,0.029880808666348457,0.04703143417890095,2.0463308520104633,-1.7126928643481614,0.04703143417890095,0.0,0.0,0.10866450884504114,1.2164237314968362,0.2,0.018158276495814116,6.549275306745114,0.2,0.0,0.047270220107215606,0.0,-0.00023878592831466257,-1.6123351629923615,-1.7000474461716562,-0.08771228317929491,-0.08771228317929491,-0.5271080887568541,15.941374778747559,15.780753135681152,7.578802463860345,1,0.002692663596282863,-0.015157211757301382,5.969631317831444e-05,15.784555435180664,1,-0.04767293930053711,-0.021835465958623696,0.004486882797259065,-1.7000474461716562,-1.6125096959175609,-1.6982993187331834,1,-0.0010488764630836478,-0.001491714311132801,-0.000994889186978147,0.04189987599966116
45.611968989999696,7.597059704571217,0.0,0.0,-0.005997652667166961,1.4072406041344112,0.0,0.020139918662494462,2.2500158998667352,0.0,0.027782486751675606,0.05654293729784951,2.050987797954187,-1.6841456944756095,0.05654293729784951,0.0,0.0,0.1100849118914884,1.2228269809442713,0.2,-0.015639768034821394,6.555692178942513,0.2,0.0,0.04938145508388768,0.0,0.00716148221396183,-1.6123351629923615,-1.6993818709776352,-0.08704670798527392,-0.08704670798527392,-0.5244274814137317,15.937929153442383,15.780753135681152,7.578802463860345,1,0.003651448142174374,-0.014944295014244949,0.000505022762818987,15.784555435180664,1,-0.04601211547851562,-0.02366798783598723,0.004342630331914535,-1.6993818709776352,-1.6125096959175609,-1.6982993187331834,1,-0.0006495313466710505,-0.0015247654093847622,-0.0008971815627472422,0.039855156999692554
45.71157270200001,7.595670604805248,0.0,0.0,-0.004215466788788893,1.413557186636239,0.0,0.01824609186248495,2.2500101262677483,0.0,0.027190716937184334,0.05148957055312722,2.050931332959151,-1.6894881342243184,0.05148957055312722,0.0,0.0,0.10955091412748891,1.2183343115858218,0.2,-0.004820955163605415,6.559858597902533,0.2,0.0,0.049416118314182744,0.0,0.0020734522389444796,-1.6123351629923615,-1.6989325995277713,-0.08659743653540986,-0.08659743653540986,-0.5263827762467732,15.941935539245605,15.780753135681152,7.578802463860345,1,0.0033736281889805045,-0.014804119274847236,0.0005264828379146589,15.784555435180664,1,-0.04634284973144531,-0.024923701398021834,0.004220672225272642,-1.6989325995277713,-1.6125096959175609,-1.6982993187331834,1,-0.0003799684767527456,-0.0015367560591100773,-0.0008167410597697155,0.04098389800037694
45.811991212000066,7.590103725593464,0.0,0.0,0.0004660354240968627,1.3670263695934686,0.0,0.01699595590756528,2.2499989564414657,0.0,0.027072405442595482,0.04413800893118848,2.057467138625503,-1.642584966638794,0.04413800893118848,0.0,0.0,0.10735993705850243,1.2052104854835233,0.2,-0.03822217367261666,6.562608897003357,0.2,0.0,0.048172518969544165,0.0,-0.004034510038355683,-1.6123351629923615,-1.6985668570052934,-0.08623169401293218,-0.08623169401293218,-0.5253535060497713,15.945863723754883,15.780753135681152,7.578802463860345,1,0.002260252346623659,-0.014631333088085825,0.00032188590295205633,15.784555435180664,1,-0.04839248657226562,-0.02680521011880657,0.004135868088372949,-1.6985668570052934,-1.6125096959175609,-1.6982993187331834,1,-0.00016052296326600767,-0.001546125172158902,-0.0007321706779000011,0.038962939999692026
45.913432465999904,7.587209408690574,0.0,0.0,0.00259552428342577,1.404767032779984,0.0,0.01722688076886597,2.2499941068204454,0.0,0.02675829455256462,0.04695852920416477,2.0526353498908962,-1.680039290460343,0.04695852920416477,0.0,0.0,0.10694529655792903,1.198675520059635,0.2,0.0060523988109997965,6.562100862308496,0.2,0.0,0.048112201203218644,0.0,-0.0011536719990538765,-1.6123351629923615,-1.6985775377141974,-0.08624237472183616,-0.08624237472183616,-0.5270623452951896,15.946908950805664,15.780753135681152,7.578802463860345,1,0.001681388966045816,-0.014562494526953169,7.381995992052307e-06,15.784555435180664,1,-0.0487060546875,-0.028134608923740673,0.00407522465716953,-1.6985775377141974,-1.6125096959175609,-1.6982993187331834,1,-0.0001669313886083934,-0.0015506814514540702,-0.0007068375796534049,0.041747702000066056
46.011697153999194,7.579407857457281,0.0,0.0,0.007983595867808915,1.3711547769029955,0.0,0.01819083042080971,2.249980839104939,0.0,0.025127626955509186,0.05445551161687946,2.056718331434879,-1.6469331813109467,0.05445551161687946,0.0,0.0,0.10739985460094677,1.182458674411978,0.2,-0.011347556105751992,6.559980173074219,0.2,-0.0,0.049363336587262545,0.0,0.005092175029616917,-1.6123351629923615,-1.6986912085682564,-0.08635604557589494,-0.08635604557589494,-0.5274859216268707,15.94460391998291,15.780753135681152,7.578802463860345,1,0.00012107871938713544,-0.014525786673970191,-0.0005001119782069152,15.784555435180664,1,-0.04801454544067383,-0.030038652375291172,0.003933053934884469,-1.6986912085682564,-1.6125096959175609,-1.6982993187331834,1,-0.00023513390104379361,-0.0015588079533778504,-0.0007083923027418025,0.039380555000207096
46.11152198399941,7.574348364520719,0.0,0.0,0.01128856820143992,1.364094671363278,0.0,0.014297045063769491,2.249978692138186,0.0,0.0241501796990633,0.055127697205986155,2.0590322268730987,-1.6381528244384151,0.055127697205986155,0.0,0.0,0.10797331880898384,1.1722554191385486,0.2,-0.008187734320873963,6.568546500859707,0.2,0.0,0.05029388346595232,0.0,0.00483381374003383,-1.6121606300671623,-1.6978275740036095,-0.08566694393644703,-0.08566694393644703,-0.5268552413599098,15.941915512084961,15.780753135681152,7.578802463860345,1,-0.0008908198679252522,-0.014552883567983899,-0.000885278840399981,15.784555435180664,1,-0.04720802307128906,-0.03130642590616666,0.0037932190380758533,-1.6978275740036095,-1.6125096959175609,-1.6982993187331834,1,0.0002830468377443385,-0.00155386921617604,-0.0006502217461135429,0.03992641599961644
46.212483048999275,7.570320019840243,0.0,0.0,0.013669217283296158,1.3679229474149834,0.0,0.01194587736273529,2.249978430133352,0.0,0.023119650781154633,0.05410057669674704,2.059435897614947,-1.6408351257042115,0.05410057669674704,0.0,0.0,0.10870014694602242,1.164402243974153,0.2,0.0035018529846288803,6.573719069801983,0.2,-0.0,0.05134829769892067,0.0,0.0027522789978263653,-1.6121606300671623,-1.6972860007181583,-0.08512537065099579,-0.08512537065099579,-0.526870972139329,15.93842601776123,15.780753135681152,7.578802463860345,1,-0.0016964888040204686,-0.01464697040870777,-0.0013452473085286188,15.784555435180664,1,-0.04616117477416992,-0.033169410903290085,0.0036012069420275168,-1.6972860007181583,-1.6125096959175609,-1.6982993187331834,1,0.0006079908090150798,-0.0015315351031555528,-0.000544029624670795,0.03997765199983405
46.31167508599992,7.564887722655383,0.0,0.0,0.01680874662072864,1.3368959156187818,0.0,0.01058408102999852,2.2499764827790223,0.0,0.021227022632956505,0.06709165488829227,2.063960547037619,-1.6092705560374285,0.06709165488829227,0.0,0.0,0.11072366960133512,1.1545888399583395,0.2,-0.017707732592549142,6.576715021734004,0.2,0.0,0.05369798818102717,0.0,0.013393666707265111,-1.6121606300671623,-1.6969055241743913,-0.08474489410722885,-0.08474489410722885,-0.5249701019169104,15.926416397094727,15.780753135681152,7.578802463860345,1,-0.0027829482409924113,-0.01474613387659857,-0.0016268266060508248,15.784555435180664,1,-0.043861198425292965,-0.03438470162281879,0.003435334725888957,-1.6969055241743913,-1.6125096959175609,-1.6982993187331834,1,0.0008362767352752431,-0.0015100768560270999,-0.00048619441271409414,0.04087877299934917
46.41505748799955,7.557279262466841,0.0,0.0,0.021095052715441202,1.3268784298626755,0.0,0.010309216831629706,2.249971223311331,0.0,0.018345000222325325,0.06885581319444195,2.065516648403409,-1.5989427283465396,0.06885581319444195,0.0,0.0,0.11348844115359868,1.1408597699459393,0.2,-0.013995403339098367,6.577319722970414,0.2,0.0,0.05708606455876401,0.0,0.011769748635677939,-1.6121606300671623,-1.6967170676935244,-0.08455643762636189,-0.08455643762636189,-0.5250654629648956,15.9193754196167,15.780753135681152,7.578802463860345,1,-0.0043046402787009445,-0.01498367900154875,-0.002145812490272763,15.784555435180664,1,-0.040445995330810544,-0.03601906199504491,0.0030450758005576522,-1.6967170676935244,-1.6125096959175609,-1.6982993187331834,1,0.0009493506237954197,-0.0014730377974335174,-0.00043787072113397424,0.04015403500034154
46.511412689999815,7.5508182362129785,0.0,0.0,0.02469100242892794,1.308689353319683,0.0,0.012858691762736971,2.249957952372893,0.0,0.016506142914295197,0.07333387353046922,2.0671007645875283,-1.5817942470435178,0.07333387353046922,0.0,0.0,0.11524867969607194,1.1294812691373461,0.2,-0.020813813570817408,6.571710878121979,0.2,-0.0,0.059245522069066046,0.0,0.014088351461403168,-1.6121606300671623,-1.6971515408472577,-0.08499091078009524,-0.08499091078009524,-0.5300471206715309,15.912154197692871,15.780753135681152,7.578802463860345,1,-0.005596845529473349,-0.015189836124390569,-0.002486481519667183,15.784555435180664,1,-0.03827962875366211,-0.03705067687322168,0.002801398979752545,-1.6971515408472577,-1.6125096959175609,-1.6982993187331834,1,0.0006886667315554096,-0.0014511272320892254,-0.0004531019158400476,0.04000064200045017
46.61239957699945,7.541774811643987,0.0,0.0,0.029489663546257087,1.3090535952297655,0.0,0.018032122576745815,2.2499294912350085,0.0,0.014247199520468712,0.07363905239133964,2.0654459957538576,-1.5842149062981816,0.07363905239133964,0.0,0.0,0.11723879129398544,1.1139379733591384,0.2,-0.004927492310416735,6.560329330331159,0.2,-0.0,0.061794955064110035,0.0,0.011844097327229608,-1.6123351629923615,-1.6981499298618865,-0.08581476686952527,-0.08581476686952527,-0.5256368357784644,15.903573989868164,15.780753135681152,7.578802463860345,1,-0.00740553044327168,-0.0155856399028076,-0.0030358276158821643,15.784555435180664,1,-0.03570556640625,-0.03851830556364936,0.002451028530053378,-1.6981499298618865,-1.6125096959175609,-1.6982993187331834,1,8.963332277813762e-05,-0.001437233938609847,-0.000578245625382538,0.040479783999217034
46.71154001600007,7.53898533298891,0.0,0.0,0.030882215361455828,1.3134831187384015,0.0,0.019597727755922324,2.249919721126594,0.0,0.013592561706900597,0.06723899311025351,2.064377071941376,-1.5892526418313357,0.06723899311025351,0.0,0.0,0.11768642304981225,1.109043042149226,0.2,0.0043891319439439995,6.5568849989369715,0.2,0.0,0.06245631680574699,0.0,0.004782676304506525,-1.6123351629923615,-1.698462492849845,-0.08612732985748384,-0.08612732985748384,-0.5256601792204417,15.899503707885742,15.780753135681152,7.578802463860345,1,-0.007963426174287136,-0.015906210084154274,-0.0033652530385589585,15.784555435180664,1,-0.03492021560668945,-0.03945545494338465,0.0022483971038131374,-1.698462492849845,-1.6125096959175609,-1.6982993187331834,1,-9.790446999700108e-05,-0.0014398613884046708,-0.0006773674042801598,0.04027451399997517
46.81214267099949,7.535683861539121,0.0,0.0,0.031540889912477894,1.2998451158887245,0.0,0.02769392610474697,2.2498840860244984,0.0,0.012897346168756485,0.06392183145987215,2.0633635201563774,-1.5792741084225836,0.06392183145987215,0.0,0.0,0.11742611471955727,1.1056986702582186,0.2,-0.005955330606022313,6.539073362569558,0.2,-0.0,0.06271726113048047,0.0,0.001204570329391676,-1.6123351629923615,-1.7001833143472738,-0.08784815135491231,-0.08784815135491231,-0.5340280543483029,15.900782585144043,15.780753135681152,7.578802463860345,1,-0.008623720464244934,-0.016401564420847243,-0.0036066932790235922,15.784555435180664,1,-0.03486814498901367,-0.040831585864688456,0.0020609697350546788,-1.7001833143472738,-1.6125096959175609,-1.6982993187331834,1,-0.0011303973684542168,-0.0014689567617757367,-0.000885874076453486,0.03881106800054113
46.913555436000024,7.534680366365235,0.0,0.0,0.03181918762672429,1.3007282523816361,0.0,0.02924189122593844,2.2498765105912613,0.0,0.012852245941758156,0.0626963737535094,2.062658281859764,-1.5809108487607457,0.0626963737535094,0.0,0.0,0.11719729751340778,1.1044675808043645,0.2,-0.0038528154136676374,6.535667839302937,0.2,-0.0,0.06260703094298978,0.0,8.934281051961345e-05,-1.6123351629923615,-1.7005526704572085,-0.08821750746484724,-0.08821750746484724,-0.531846747361515,15.901190757751465,15.780753135681152,7.578802463860345,1,-0.008824419499022086,-0.016750683296348413,-0.0037034005186613247,15.784555435180664,1,-0.03499059677124023,-0.04176366511951751,0.001997150480700921,-1.7005526704572085,-1.6125096959175609,-1.6982993187331834,1,-0.0013520110344150459,-0.0015020100353930674,-0.001009385816083178,0.03909151700008806
47.01172824399964,7.53102938813104,0.0,0.0,0.03360026276243855,1.3015290206724812,0.0,0.03004679107089226,2.2498659439469537,0.0,0.013936515897512436,0.05839908434396516,2.062146132273479,-1.582222451659221,0.05839908434396516,0.0,0.0,0.11558923027945509,1.0985875026972256,0.2,0.0028216393229321826,6.533897059644037,0.2,0.0,0.06099162862916559,0.0,-0.0025925442852004284,-1.6123351629923615,-1.7008042934919123,-0.08846913049955063,-0.08846913049955063,-0.528302781037932,15.906818389892578,15.780753135681152,7.578802463860345,1,-0.009554615145860978,-0.017315483365189458,-0.0038971909107640445,15.784555435180664,1,-0.03667888641357422,-0.04321544573074679,0.0020452839257296914,-1.7008042934919123,-1.6125096959175609,-1.6982993187331834,1,-0.0015029848552373436,-0.0015608834511948344,-0.001125678608741367,0.03969921499992779
47.1117224489999,7.525758209881695,0.0,0.0,0.035877580479975385,1.2880773258499458,0.0,0.03140220197524121,2.2498502961432996,0.0,0.014299091883003712,0.05800128930115565,2.0631694623380783,-1.5698093266701045,0.05800128930115565,0.0,0.0,0.11487857670824878,1.0909232848653705,0.2,-0.0029769887750040252,6.530915155654469,0.2,-0.0,0.060347690895147035,0.0,-0.002346401593991389,-1.6123351629923615,-1.7012535630956571,-0.08891840010329588,-0.08891840010329588,-0.5297214334593296,15.909462928771973,15.780753135681152,7.578802463860345,1,-0.010608850795730086,-0.01773581988380007,-0.004079809323616262,15.784555435180664,1,-0.03747224807739258,-0.04422164810230769,0.0020949087812969155,-1.7012535630956571,-1.6125096959175609,-1.6982993187331834,1,-0.0017725466174842274,-0.0016072422148818032,-0.0011839168417010074,0.04063984599997639
47.21213430199987,7.519646430916752,0.0,0.0,0.039241040657481345,1.2644918101750275,0.0,0.03091398257467864,2.2498386763449263,0.0,0.013223894871771336,0.06592622008396996,2.0662347267514116,-1.5464112200652602,0.06592622008396996,0.0,0.0,0.11595838783015854,1.0802152100923745,0.2,-0.015850490243655226,6.531989238335708,0.2,0.0,0.06164069577503232,0.0,0.0042855243089376435,-1.6123351629923615,-1.7012479989212104,-0.08891283592884891,-0.08891283592884891,-0.5295616797043812,15.905622482299805,15.780753135681152,7.578802463860345,1,-0.01183120658871868,-0.01842184333131205,-0.004417598217020528,15.784555435180664,1,-0.03632011413574219,-0.04568627360585791,0.0020515150894525433,-1.7012479989212104,-1.6125096959175609,-1.6982993187331834,1,-0.0017692081128161785,-0.0016773235081070387,-0.0012162569161020692,0.0394908710004529
47.31167385199933,7.514235291634808,0.0,0.0,0.041879781425540746,1.261882937002537,0.0,0.03098936461239307,2.2498272841126057,0.0,0.011937414295971394,0.07264896460103755,2.0663885581993306,-1.5440562430101255,0.07264896460103755,0.0,0.0,0.11742034730526232,1.0715391713167546,0.2,-0.009784037168640805,6.531823397852736,0.2,-0.0,0.06328975980557455,0.0,0.009359204795462992,-1.6123351629923615,-1.701360853418234,-0.08902569042587238,-0.08902569042587238,-0.5298513333109479,15.89547348022461,15.780753135681152,7.578802463860345,1,-0.012913434445107442,-0.018934563303510815,-0.004684820654384539,15.784555435180664,1,-0.03468647003173828,-0.04664085297189319,0.0019485043121124763,-1.701360853418234,-1.6125096959175609,-1.6982993187331834,1,-0.0018369208110303958,-0.0017264798808356585,-0.001225922498049862,0.03907393999998021
47.414950906999366,7.508267729030585,0.0,0.0,0.044562374474543295,1.256681979082095,0.0,0.029376065636099104,2.2498256498989235,0.0,0.008834518492221832,0.0816801757306359,2.0674196710416584,-1.5384215791787392,0.0816801757306359,0.0,0.0,0.12103608723389317,1.0623170611594448,0.2,-0.005750015809523579,6.5353726556005824,0.2,0.0,0.0673209412450028,0.0,0.014359234485633109,-1.6121606300671623,-1.701129743152681,-0.0889691130855188,-0.0889691130855188,-0.5285821413833441,15.886338233947754,15.780753135681152,7.578802463860345,1,-0.014106946965952006,-0.019761962694664986,-0.005063735874555089,15.784555435180664,1,-0.030534839630126952,-0.04791700270016819,0.0016269700283241839,-1.701129743152681,-1.6125096959175609,-1.6982993187331834,1,-0.0016982546516985941,-0.0017968513924656098,-0.0012045711677228592,0.04073504099960701
47.511409636999815,7.506515104396864,0.0,0.0,0.04523687938290925,1.2621879589208231,0.0,0.028935411656948854,2.249825625112477,0.0,0.007953709922730923,0.07432889738021796,2.066803198247778,-1.5437481422726376,0.07432889738021796,0.0,0.0,0.12181077186163662,1.059733934717873,0.2,0.0023424866870574413,6.536342094354714,0.2,-0.0,0.06831423716334342,0.0,0.006014660216874537,-1.6121606300671623,-1.7010655288241525,-0.08890489875699004,-0.08890489875699004,-0.5296970090373908,15.879229545593262,15.780753135681152,7.578802463860345,1,-0.014457471892696284,-0.020342009196805785,-0.005242678131462028,15.784555435180664,1,-0.029405307769775388,-0.04870351392623525,0.0014140616887593246,-1.7010655288241525,-1.6125096959175609,-1.6982993187331834,1,-0.0016597260545814674,-0.0018412445062648158,-0.0011809408684448964,0.03964514700055588
47.61274155599949,7.499796401966528,0.0,0.0,0.047792388686698196,1.2479113270539568,0.0,0.028714210502863366,2.249817018938164,0.0,0.00619540736079216,0.0757019673618209,2.068616091806932,-1.5296361539957108,0.0757019673618209,0.0,0.0,0.12351542070711942,1.0506710964201675,0.2,-0.0028697064685813943,6.536828736893701,0.2,-0.0,0.07039200800779635,0.0,0.0053099593540245444,-1.6121606300671623,-1.7010871832577712,-0.08892655319060871,-0.08892655319060871,-0.530171515856834,15.875319480895996,15.780753135681152,7.578802463860345,1,-0.015801212378763373,-0.02125668334927866,-0.005506944727837635,15.784555435180664,1,-0.027229213714599607,-0.04979911877511525,0.0011311945629435295,-1.7010871832577712,-1.6125096959175609,-1.6982993187331834,1,-0.0016727187147526745,-0.0019065823915257914,-0.0011575880268126315,0.04046617200037872
47.711506280999856,7.498095094314247,0.0,0.0,0.048411960768871116,1.2405705694746607,0.0,0.029045809079188235,2.2498124637588677,0.0,0.005984671879559755,0.07412429786208478,2.069441386161323,-1.522525470780089,0.07412429786208478,0.0,0.0,0.12355693148439233,1.0483180746847625,0.2,-0.007860021657873138,6.536099220025787,0.2,-0.0,0.07054335576289954,0.0,0.003580942099185247,-1.6121606300671623,-1.7011685781495032,-0.08900794808234114,-0.08900794808234114,-0.5304094545491536,15.87258243560791,15.780753135681152,7.578802463860345,1,-0.016141473909219606,-0.021890184721041876,-0.005638610793812817,15.784555435180664,1,-0.027009201049804688,-0.05,0.001024093430430326,-1.7011685781495032,-1.6125096959175609,-1.6982993187331834,1,-0.0017215556497918616,-0.0019514530663496965,-0.0011569315003009085,0.03799106499991467
47.811975109999366,7.4932405811314435,0.0,0.0,0.050107457711226225,1.2381508534493215,0.0,0.031724527205575066,2.2497878574178753,0.0,0.004410920664668083,0.07986610790279648,2.0688293567589793,-1.5213507261293913,0.07986610790279648,0.0,0.0,0.1252420162031413,1.042073147748053,0.2,-0.004056608100019315,6.530206040147735,0.2,-0.0,0.07249865732308393,0.0,0.00736745057971255,-1.6121606300671623,-1.7017618449943683,-0.08960121492720585,-0.08960121492720585,-0.5327468088112394,15.867926597595215,15.780753135681152,7.578802463860345,1,-0.01711237654578035,-0.022898328048431615,-0.005845255082773485,15.784555435180664,1,-0.025011348724365234,-0.05,0.0008364328664160306,-1.7017618449943683,-1.6125096959175609,-1.6982993187331834,1,-0.0020775157567109567,-0.0020277836035311465,-0.0012018068941424863,0.03876286099966819
47.91352102699966,7.490037804103012,0.0,0.0,0.05122947513648332,1.2332863170358743,0.0,0.03461455369931353,2.2497632474675724,0.0,0.0033450941555202007,0.08164058775871816,2.068450234663647,-1.517874644416874,0.08164058775871816,0.0,0.0,0.12624979749469548,1.037949598778109,0.2,-0.004823249870452653,6.523847981861511,0.2,-0.0,0.07374282200350517,0.0,0.00789776575521299,-1.6121606300671623,-1.702414356184128,-0.0902537261169658,-0.0902537261169658,-0.5327244213169211,15.86375617980957,15.780753135681152,7.578802463860345,1,-0.0177529319514667,-0.023601608596941902,-0.005979376214701466,15.784555435180664,1,-0.023760223388671873,-0.05,0.0006904264399325163,-1.702414356184128,-1.6125096959175609,-1.6982993187331834,1,-0.002469022470566795,-0.002090975453742215,-0.0012804671440662442,0.03941065100025298
48.01190161699924,7.486834319311958,0.0,0.0,0.05229069261020607,1.2280903249427864,0.0,0.037543495293188005,2.249737782981677,0.0,0.0016690302873030305,0.08650663940634246,2.0680637976400407,-1.5141459861202429,0.08650663940634246,0.0,0.0,0.12812879694725307,1.03389745131994,0.2,-0.005995392068461021,6.517404310354987,0.2,-0.0,0.07587585999597002,0.0,0.01063077941037243,-1.6123351629923615,-1.7031035879387373,-0.0907684249463756,-0.0907684249463756,-0.5328835602459074,15.856205940246582,15.780753135681152,7.578802463860345,1,-0.01839362890967742,-0.024692677437869695,-0.006147341146291799,15.784555435180664,1,-0.02149515151977539,-0.05,0.00045878299012918835,-1.7031035879387373,-1.6125096959175609,-1.6982993187331834,1,-0.0028825615233323276,-0.0022003183621708052,-0.0014002382934326688,0.039849007000157144
48.111640892999276,7.4841970978107035,0.0,0.0,0.05310863528450555,1.2341501311234706,0.0,0.040369065112246603,2.249713536946208,0.0,0.0011764595983549953,0.07942766426666945,2.0662017088176787,-1.5215610546244926,0.07942766426666945,0.0,0.0,0.12817654637601836,1.030734787564773,0.2,0.003197596565033607,6.511188056753057,0.2,0.0,0.07620005206659801,0.0,0.003227612200071443,-1.6123351629923615,-1.7037865164005244,-0.0914513534081629,-0.0914513534081629,-0.5297416185870736,15.855278015136719,15.780753135681152,7.578802463860345,1,-0.018921073209928353,-0.0254504464298153,-0.006257966097831612,15.784555435180664,1,-0.021216773986816404,-0.05,0.00032040612761297734,-1.7037865164005244,-1.6125096959175609,-1.6982993187331834,1,-0.0032923186004045757,-0.002288220949912085,-0.0015070590748484305,0.04014266200010752
48.21245154799999,7.480084562641941,0.0,0.0,0.05423738173470804,1.2256315185574629,0.0,0.04364521862910193,2.2496835326708062,0.0,-0.0003663668758235872,0.08576903190546595,2.0659611707190257,-1.5149432522483948,0.08576903190546595,0.0,0.0,0.12946102435177304,1.026178997177525,0.2,-0.0008021421994947766,6.503980519015976,0.2,-0.0,0.07789643473655797,0.0,0.007872597168907987,-1.6123351629923615,-1.704671806272825,-0.09233664328046354,-0.09233664328046354,-0.5335080446145369,15.849934577941895,15.780753135681152,7.578802463860345,1,-0.019743580243680905,-0.02662435766982328,-0.006401438491948081,15.784555435180664,1,-0.01961374282836914,-0.05,0.0001292742179974168,-1.704671806272825,-1.6125096959175609,-1.6982993187331834,1,-0.0038234925237849546,-0.0024355894692990546,-0.0016455192633651262,0.03991379800027062
48.31168508999963,7.479320171750089,0.0,0.0,0.0538882002636897,1.2263616870119607,0.0,0.04193056463741594,2.2496978919724704,0.0,-0.0017864808905869722,0.08706650520423545,2.0661971907430585,-1.5152335666430088,0.08706650520423545,0.0,0.0,0.1302562625278452,1.0265474508515444,0.2,-0.0004208349704404792,6.507752757797686,0.2,0.0,0.07922564605105929,0.0,0.007840859153176156,-1.6123351629923615,-1.7044611435148453,-0.09212598052248389,-0.09212598052248389,-0.5321373611225966,15.846328735351562,15.780753135681152,7.578802463860345,1,-0.019896458422051212,-0.02741451487875885,-0.006436027711842415,15.784555435180664,1,-0.018531990051269532,-0.05,-4.263454261905909e-05,-1.7044611435148453,-1.6125096959175609,-1.6982993187331834,1,-0.003697094868997164,-0.00253445440557112,-0.001669893474089505,0.03802714900029969
48.41496159500002,7.4778156616948985,0.0,0.0,0.05387708803354433,1.2265565289951366,0.0,0.04083404653735654,2.249705793828092,0.0,-0.0032737150322645903,0.08464137837732702,2.0663125439225682,-1.515245705630783,0.08464137837732702,0.0,0.0,0.13131197347313495,1.025876477517684,0.2,0.00045706933506628244,6.510165097617817,0.2,-0.0,0.08075141310323972,0.0,0.003889965274087305,-1.6121606300671623,-1.7043730523051865,-0.09221242223802406,-0.09221242223802406,-0.5329483421346813,15.841317176818848,15.780753135681152,7.578802463860345,1,-0.020197360433089354,-0.028631832929561174,-0.00645426542960392,15.784555435180664,1,-0.01702852249145508,-0.05,-0.0003112885113338716,-1.7043730523051865,-1.6125096959175609,-1.6982993187331834,1,-0.003644240143201882,-0.002681524033989085,-0.0016524025794516998,0.04038334100005159
48.51140928299992,7.473210688519115,0.0,0.0,0.05609744619022074,1.202624200218744,0.0,0.03864232433589474,2.2497099324774252,0.0,-0.004893803503364325,0.09039636379697387,2.0700005887776527,-1.4908377878560513,0.09039636379697387,0.0,0.0,0.13257593162925604,1.0187945064455084,0.2,-0.01637011716376563,6.514986886461032,0.2,0.0,0.08248184107957222,0.0,0.007914522717401649,-1.6121606300671623,-1.70404000178073,-0.09187937171356797,-0.09187937171356797,-0.5314266996468344,15.834630012512207,15.780753135681152,7.578802463860345,1,-0.021118355068245977,-0.029454725116385513,-0.006547535391500067,15.784555435180664,1,-0.015452957153320311,-0.05,-0.0004982528205420614,-1.70404000178073,-1.6125096959175609,-1.6982993187331834,1,-0.003444409828527961,-0.0027738298495721923,-0.0016124730222707017,0.04000433100009104
48.612544560999595,7.463544842878592,0.0,0.0,0.06071630314664697,1.1867483395246123,0.0,0.03639115529462747,2.249703956167848,0.0,-0.006391913630068302,0.08881926362627263,2.072608721598605,-1.4743922812179548,0.08881926362627263,0.0,0.0,0.1332042721493762,1.0036351343787209,0.2,-0.01706423281576846,6.51993945835182,0.2,0.0,0.0837577114676667,0.0,0.005061552158605926,-1.6121606300671623,-1.7036976028105117,-0.09153697274334949,-0.09153697274334949,-0.5316662308838357,15.832456588745117,15.780753135681152,7.578802463860345,1,-0.02305152419635057,-0.030815520191044735,-0.006953852490128947,15.784555435180664,1,-0.014370346069335937,-0.05,-0.0007708151588606052,-1.7036976028105117,-1.6125096959175609,-1.6982993187331834,1,-0.0032389704463970047,-0.0029051005467464605,-0.0015253842740459904,0.038697740999850794
48.71194617799938,7.456899077728038,0.0,0.0,0.06394993030285939,1.1822527589510399,0.0,0.035455493057412454,2.2496959357654918,0.0,-0.006504847668111324,0.08150448394672909,2.0734259075328403,-1.4696116478235792,0.08150448394672909,0.0,0.0,0.1325679680349862,0.9930182964050654,0.2,-0.010934118519001909,6.521997915273693,0.2,-0.0,0.08344368942185851,0.0,-0.0019392054751294172,-1.6121606300671623,-1.7035415076776492,-0.09138087761048697,-0.09138087761048697,-0.5324866348577778,15.833968162536621,15.780753135681152,7.578802463860345,1,-0.024380677226461422,-0.03177847148378692,-0.007269518797625845,15.784555435180664,1,-0.014823818206787109,-0.05,-0.0008805143450239159,-1.7035415076776492,-1.6125096959175609,-1.6982993187331834,1,-0.0031453133666794917,-0.002989192166360258,-0.0014784116424079775,0.04076781799994933
48.81249702399964,7.447210972804907,0.0,0.0,0.06815513512267793,1.1735151710722402,0.0,0.035432920930269673,2.2496757261849285,0.0,-0.005041309166699648,0.06949232902837653,2.074460369014582,-1.461093052173707,0.06949232902837653,0.0,0.0,0.12955673642788781,0.9786395323389944,0.2,-0.0052929467802082745,6.522047573953407,0.2,-0.0,0.08075882735675248,0.0,-0.01126649832837595,-1.6121606300671623,-1.7036113054668904,-0.09145067539972818,-0.09145067539972818,-0.5327456918462874,15.844135284423828,15.780753135681152,7.578802463860345,1,-0.026318298211087665,-0.03330780732245913,-0.00774109005014915,15.784555435180664,1,-0.01787395477294922,-0.05,-0.0008571713695856786,-1.7036113054668904,-1.6125096959175609,-1.6982993187331834,1,-0.003187192040224218,-0.003115928083100708,-0.001445066421551884,0.04059999600031006
48.91317089199947,7.444931043740377,0.0,0.0,0.06889929958025229,1.1783022571071098,0.0,0.035235787926827626,2.249673909523936,0.0,-0.0042935144156217575,0.07403844514667016,2.073870193618395,-1.4657732868072137,0.07403844514667016,0.0,0.0,0.12811645980501413,0.9755224692089194,0.2,0.0026130219814169873,6.52248126656098,0.2,-0.0,0.07944598453238153,0.0,-0.005407539385711367,-1.6121606300671623,-1.703580227387582,-0.09141959732041993,-0.09141959732041993,-0.5324887265582724,15.852864265441895,15.780753135681152,7.578802463860345,1,-0.026774284023993646,-0.034392794177713924,-0.008001125978340875,15.784555435180664,1,-0.019489574432373046,-0.05,-0.0007519655476555889,-1.703580227387582,-1.6125096959175609,-1.6982993187331834,1,-0.003168545192639138,-0.0032015283773037433,-0.0014326232348683193,0.040454502000102366
49.01181230799921,7.444009844028003,0.0,0.0,0.06745560528413853,1.1790563823171034,0.0,0.03431172445266353,2.2496890764265776,0.0,-0.0033750273287296295,0.06807558043567317,2.07399187461255,-1.466230744909164,0.06807558043567317,0.0,0.0,0.1254209302680284,0.978142984315402,0.2,0.0007552447402758202,6.524514206204141,0.2,0.0,0.07727757455805481,0.0,-0.009201994122381634,-1.6121606300671623,-1.7034394114007199,-0.09127878133355782,-0.09127878133355782,-0.5322727645215591,15.859225273132324,15.780753135681152,7.578802463860345,1,-0.026958523966468386,-0.035980517392060506,-0.008083099326444501,15.784555435180664,1,-0.022400951385498045,-0.05,-0.0006224570979720193,-1.7034394114007199,-1.6125096959175609,-1.6982993187331834,1,-0.003084055600521873,-0.003323729978261276,-0.001405578647882435,0.038357920000635204
49.11140675199931,7.442628031694546,0.0,0.0,0.06704306846189892,1.1789348877908326,0.0,0.03373709264614383,2.249696096835372,0.0,-0.0020910808816552162,0.06132560028797604,2.074143072164195,-1.4659299144092688,0.06132560028797604,0.0,0.0,0.12265899559585794,0.9784685304921571,0.2,0.0003134285999192273,6.525778396178484,0.2,0.0,0.07485004588650788,0.0,-0.013524445598531849,-1.6121606300671623,-1.7033519838303521,-0.09119135376318965,-0.09119135376318965,-0.5314095082660057,15.874356269836426,15.780753135681152,7.578802463860345,1,-0.027234886433159924,-0.0370710155126661,-0.00806893791123585,15.784555435180664,1,-0.02538127899169922,-0.05,-0.0004914213375535937,-1.7033519838303521,-1.6125096959175609,-1.6982993187331834,1,-0.0030315990583012374,-0.003405577000533773,-0.0013873636729353417,0.04008405500007939
49.21216158900006,7.439153473961176,0.0,0.0,0.06808918543446832,1.1768789549972387,0.0,0.032347001096156444,2.2497039339269453,0.0,-0.0007266036700457335,0.06624586000981654,2.0748117623944813,-1.4633413872611112,0.06624586000981654,0.0,0.0,0.12010616937782702,0.9745372218042726,0.2,0.0022010816412031536,6.528836597588456,0.2,-0.0,0.07249966382872365,0.0,-0.006253803818907112,-1.6121606300671623,-1.7030860715747573,-0.0909254415075953,-0.0909254415075953,-0.5323896858590381,15.878942489624023,15.780753135681152,7.578802463860345,1,-0.027929797979833818,-0.03873890429660275,-0.008124053881535451,15.784555435180664,1,-0.02831611633300781,-0.05,-0.0002622146635869937,-1.7030860715747573,-1.6125096959175609,-1.6982993187331834,1,-0.002872051704944356,-0.00352136497850947,-0.0013383174861913178,0.039688713000032294
49.31172054799936,7.433360985219839,0.0,0.0,0.06986163758673193,1.165959173969553,0.0,0.030854131337821028,2.249710020790614,0.0,0.0017995178932324052,0.04901521828641088,2.0766672237846984,-1.45193292361177,0.04901521828641088,0.0,0.0,0.11528615082780305,0.967881370107432,0.2,-0.002050264372760239,6.5321209110567935,0.2,0.0,0.06809197976074238,0.0,-0.019076761474331502,-1.6121606300671623,-1.7028043918383156,-0.0906437617711533,-0.0906437617711533,-0.5309712217357213,15.896300315856934,15.780753135681152,7.578802463860345,1,-0.029088295728101343,-0.03989485308023584,-0.008237378562810942,15.784555435180664,1,-0.03352346420288086,-0.05,-2.9817071677536915e-05,-1.7028043918383156,-1.6125096959175609,-1.6982993187331834,1,-0.002703043863079291,-0.0035945377203655047,-0.0012983674238574048,0.040054056999906607
49.41506737399959,7.42990952965169,0.0,0.0,0.07093376615093977,1.158905607856281,0.0,0.029578661214132003,2.24971761084987,0.0,0.0028804857283830643,0.05341741833946581,2.077959405044489,-1.4444293847315408,0.05341741833946581,0.0,0.0,0.11287749422428295,0.9637416959243266,0.2,-0.004953841480214098,6.53492694532891,0.2,0.0,0.06599820509753992,0.0,-0.012580786758074117,-1.6121606300671623,-1.7025578111276563,-0.09039718106049399,-0.09039718106049399,-0.5310849376765259,15.905754089355469,15.780753135681152,7.578802463860345,1,-0.02977858684173107,-0.04167846050854582,-0.008380479049281594,15.784555435180664,1,-0.0363595962524414,-0.05,0.00022666819594672523,-1.7025578111276563,-1.6125096959175609,-1.6982993187331834,1,-0.0025550954366837073,-0.003700601114193354,-0.001243895954337388,0.04117546899942681
49.51140966000003,7.425842571473452,0.0,0.0,0.07217924824510091,1.153091652785931,0.0,0.028881806896181472,2.2497192686096343,0.0,0.003841724479570985,0.05209774771871708,2.078909962690243,-1.4383985936816372,0.05209774771871708,0.0,0.0,0.11071130520795965,0.958991336200849,0.2,-0.006012015283195395,6.536460024828401,0.2,0.0,0.0641217484370332,0.0,-0.012024000718316117,-1.6121606300671623,-1.7024291566844543,-0.09026852661729201,-0.09026852661729201,-0.5312866530053594,15.913837432861328,15.780753135681152,7.578802463860345,1,-0.03059197847737867,-0.042876230633229394,-0.008500935877226223,15.784555435180664,1,-0.03878459930419922,-0.05,0.0003819566172074287,-1.7024291566844543,-1.6125096959175609,-1.6982993187331834,1,-0.002477902770762519,-0.0037661172081985676,-0.0012086701844724222,0.03999398500036477
49.61185343999932,7.4227536876738,0.0,0.0,0.07231680408822022,1.1560351988616664,0.0,0.023032309728310933,2.2497756057791483,0.0,0.005289243999868631,0.05210210690602537,2.0803332304709836,-1.4387916136689936,0.05210210690602537,0.0,0.0,0.10803266747949603,0.9571161929104686,0.2,-0.0011524617700470513,6.549328918597717,0.2,0.0,0.06164605408777643,0.0,-0.009543947181751061,-1.6121606300671623,-1.7012113117915473,-0.0890506817243848,-0.0890506817243848,-0.527939075378989,15.924056053161621,15.780753135681152,7.578802463860345,1,-0.03120975523730909,-0.04473485443140085,-0.008617342184683111,15.784555435180664,1,-0.04185018539428711,-0.05,0.0006141256341819927,-1.7012113117915473,-1.6125096959175609,-1.6982993187331834,1,-0.0017471958350183225,-0.003847146708266708,-0.0010770544410677112,0.03969327400045586
49.71165821199975,7.421579889593306,0.0,0.0,0.07237079532136012,1.1542687972110177,0.0,0.021227882015764313,2.2497929984279192,0.0,0.005601359531283379,0.05479513632966228,2.0811486765705713,-1.4362190564112485,0.05479513632966228,0.0,0.0,0.10757790439155976,0.9564226335308017,0.2,-0.0022145542506799578,6.553298659565319,0.2,0.0,0.061185926916165825,0.0,-0.006390790586503546,-1.6121606300671623,-1.7008156023533647,-0.08865497228620267,-0.08865497228620267,-0.5265652759206141,15.927972793579102,15.780753135681152,7.578802463860345,1,-0.031444514853407844,-0.04600452778920185,-0.008649146281778592,15.784555435180664,1,-0.04247474670410156,-0.05,0.0007160045673088991,-1.7008156023533647,-1.6125096959175609,-1.6982993187331834,1,-0.001509770172108782,-0.003891187789270287,-0.0009840801729104776,0.040050538000286906
49.81300724799985,7.422585135631118,0.0,0.0,0.06975021098630642,1.1571674830516223,0.0,0.014165631917430569,2.249866885216277,0.0,0.006364115979522467,0.056252976412493216,2.08308282263099,-1.4358633427609078,0.056252976412493216,0.0,0.0,0.10600305109830295,0.9628937320006713,0.2,-0.0057532833479751536,6.568835609781654,0.2,-0.0,0.05978336107126829,0.0,-0.003530384658775071,-1.6121606300671623,-1.6992596143021201,-0.08709898423495765,-0.08709898423495765,-0.5306448336580655,15.932180404663086,15.780753135681152,7.578802463860345,1,-0.031243465645845528,-0.04788651179322534,-0.008505416458443625,15.784555435180664,1,-0.04428749084472656,-0.05,0.0008587390757298176,-1.6992596143021201,-1.6125096959175609,-1.6982993187331834,1,-0.0005761773413620386,-0.003919231559923331,-0.0007395255034555308,0.040346290999877965
49.91356586099937,7.4255309967143885,0.0,0.0,0.06665520357831473,1.1798378498384685,0.0,0.009429416056504896,2.249915356942534,0.0,0.006959268357604742,0.05227771942901038,2.0818176229827445,-1.4560809901773275,0.05227771942901038,0.0,0.0,0.10465107599793456,0.9713870467213169,0.2,0.008438829039175694,6.57925528467569,0.2,0.0,0.05861508458419789,0.0,-0.006337365155187505,-1.6121606300671623,-1.6981677837406992,-0.08600715367353695,-0.08600715367353695,-0.5247471084042357,15.939306259155273,15.780753135681152,7.578802463860345,1,-0.030654293429191348,-0.04911228649255278,-0.008293714887666347,15.784555435180664,1,-0.04577665328979492,-0.05,0.000941051482549803,-1.6981677837406992,-1.6125096959175609,-1.6982993187331834,1,7.892099549051678e-05,-0.003921327376300298,-0.0005830309055683123,0.03908875200067996
50.011693209999976,7.432182685670633,0.0,0.0,0.06096769245031068,1.2071743236034902,0.0,0.004819318515868606,2.2499604661589303,0.0,0.006679358892142773,0.05958306573484213,2.080189108213394,-1.4806772845275975,0.05958306573484213,0.0,0.0,0.10412293627682168,0.9877251358856097,0.2,0.01944606268288884,6.58939749926509,0.2,0.0,0.05846614643080734,0.0,0.0011169193040347942,-1.6121606300671623,-1.6969536851926572,-0.08479305512549473,-0.08479305512549473,-0.525459065947604,15.9392671585083,15.780753135681152,7.578802463860345,1,-0.029323955637942413,-0.05,-0.007803448592064841,15.784555435180664,1,-0.046413516998291014,-0.05,0.0010062858749797295,-1.6969536851926572,-1.6125096959175609,-1.6982993187331834,1,0.0008073801243157153,-0.0038959196494065314,-0.00035534522518643625,0.0395791230002942
50.11208104999969,7.436986465927427,0.0,0.0,0.057080397632758434,1.2106711839410444,0.0,0.003733880173794882,2.2499713417032545,0.0,0.005995301064103842,0.06029184676414054,2.080333754945738,-1.48334325836757,0.06029184676414054,0.0,0.0,0.10435845047970009,0.9991661370824323,0.2,0.011503172193219812,6.5917854636176525,0.2,0.0,0.059017889649357745,0.0,0.001273957114782793,-1.6121606300671623,-1.6965669322106107,-0.08440630214344846,-0.08440630214344846,-0.5250955709020454,15.938226699829102,15.780753135681152,7.578802463860345,1,-0.02836319958658358,-0.05,-0.007380563527400446,15.784555435180664,1,-0.046101379394531246,-0.05,0.0009603118344509122,-1.6965669322106107,-1.6125096959175609,-1.6982993187331834,1,0.0010394319135436092,-0.0038695237276262667,-0.00025881384136839893,0.03920867799934058
50.21155016800003,7.4451697203555245,0.0,0.0,0.05101951928818044,1.2489769953312115,0.0,0.0010553101639557225,2.2499927682753667,0.0,0.0065554105676710606,0.050234160500318356,2.0767977116909084,-1.5196454378812958,0.050234160500318356,0.0,0.0,0.10235039510298523,1.0171906140063498,0.2,0.03178623174069047,6.597678317639297,0.2,0.0,0.057476990721188496,0.0,-0.007242830220870139,-1.6121606300671623,-1.6957463105063078,-0.08358568043914527,-0.08358568043914527,-0.520275336867716,15.944869995117188,15.780753135681152,7.578802463860345,1,-0.02672654870096416,-0.05,-0.006786065736045843,15.784555435180664,1,-0.04809436798095703,-0.05,0.0009512717602774667,-1.6957463105063078,-1.6125096959175609,-1.6982993187331834,1,0.0015318049361253915,-0.00382006854408102,-0.00015533743657320038,0.03966526300064288
50.31160787299996,7.44784715679618,0.0,0.0,0.049118350163901765,1.2181843737881577,0.0,-0.00021151207463538605,2.2500013949164,0.0,0.006741030607372522,0.054368672885448284,2.081164430552852,-1.4883662380842348,0.054368672885448284,0.0,0.0,0.10172292528320644,1.0233660467731986,0.2,-0.0051816789917910186,6.600465326564199,0.2,-0.0,0.05698913680550034,0.0,-0.002620463920052057,-1.6121606300671623,-1.69539659922494,-0.08323596915777776,-0.08323596915777776,-0.5258231981407138,15.947127342224121,15.780753135681152,7.578802463860345,1,-0.026191061412833075,-0.05,-0.006341635558111013,15.784555435180664,1,-0.04877157211303711,-0.05,0.000981112347658245,-1.69539659922494,-1.6125096959175609,-1.6982993187331834,1,0.0017416317049460338,-0.003772247324058618,-7.368475029527318e-05,0.0420644789992366
50.41506990800008,7.455529174700224,0.0,0.0,0.04379034609144461,1.2510047140714478,0.0,-0.0037653790652895343,2.250022116103173,0.0,0.006345634814351797,0.05756911086282599,2.07863010257151,-1.518851281154919,0.05756911086282599,0.0,0.0,0.10152197345015328,1.0395380061148882,0.2,0.011464806270016144,6.608283833943637,0.2,0.0,0.05710580318148088,0.0,0.00046330768134510906,-1.6121606300671623,-1.6943939224813374,-0.0822332924141751,-0.0822332924141751,-0.521072372116252,15.947784423828125,15.780753135681152,7.578802463860345,1,-0.024654657832024186,-0.05,-0.005757856010199549,15.784555435180664,1,-0.04896869659423828,-0.05,0.0009788159365470442,-1.6943939224813374,-1.6125096959175609,-1.6982993187331834,1,0.0023432377511076294,-0.0036867869617244666,4.587153126302894e-05,0.04165077699963149
50.51145104099942,7.463710171003061,0.0,0.0,0.03842516456515716,1.272140495195488,0.0,-0.007102623096077613,2.25003656619229,0.0,0.005342451855540276,0.06288116599430155,2.077382543146526,-1.5380142256002332,0.06288116599430155,0.0,0.0,0.1024019494941543,1.0558496943263196,0.2,0.016284041864104124,6.615625770811371,0.2,0.0,0.05823569858316842,0.0,0.004645467411133132,-1.6121606300671623,-1.6935207221307518,-0.08136009206358974,-0.08136009206358974,-0.518682521092414,15.944452285766602,15.780753135681152,7.578802463860345,1,-0.02301845857145679,-0.05,-0.005262228475462841,15.784555435180664,1,-0.04796905517578125,-0.05,0.0009070167118734463,-1.6935207221307518,-1.6125096959175609,-1.6982993187331834,1,0.002867157961458977,-0.0036149347681876547,0.00014942617973603343,0.03927461300008872
50.61212136999984,7.47117312323691,0.0,0.0,0.03375109730771569,1.2627505633282594,0.0,-0.00998872204525145,2.2500451241490684,0.0,0.004568793810904026,0.06078098495637471,2.079777483183539,-1.5270126608301506,0.06078098495637471,0.0,0.0,0.10281694807715401,1.0707484995903083,0.2,-0.008011290867336719,6.621975188499554,0.2,-0.0,0.058948892559749985,0.0,0.0018320923966247233,-1.6121606300671623,-1.6927111140527,-0.08055048398553755,-0.08055048398553755,-0.5208275593678088,15.942331314086914,15.780753135681152,7.578802463860345,1,-0.021525868124687087,-0.05,-0.004535596667431493,15.784555435180664,1,-0.047332763671875,-0.05,0.0007742409593295109,-1.6927111140527,-1.6125096959175609,-1.6982993187331834,1,0.0033529228082900264,-0.0034842393609430065,0.0003002947111243241,0.03876483400017605
50.711503919999814,7.476896895232904,0.0,0.0,0.030274559664490774,1.2989200842367816,0.0,-0.007156926817444209,2.250028978974966,0.0,0.00560177955776453,0.0460880684885578,2.07497500094887,-1.5634265370966591,0.0460880684885578,0.0,0.0,0.10096779720026254,1.0816285048650565,0.2,0.01728472872202553,6.615745238998378,0.2,-0.0,0.057219610585498806,0.0,-0.011131542096941007,-1.6121606300671623,-1.6929591824111707,-0.08079855234400846,-0.08079855234400846,-0.5242399536137698,15.948464393615723,15.780753135681152,7.578802463860345,1,-0.0203811137254883,-0.05,-0.004146598786659168,15.784555435180664,1,-0.049172687530517574,-0.05,0.0007687047483801788,-1.6929591824111707,-1.6125096959175609,-1.6982993187331834,1,0.003204081793207614,-0.0033961420473609264,0.0003186711931224145,0.03849524700035545
50.81334060399968,7.4797146263237675,0.0,0.0,0.02869530870877008,1.2960915059875344,0.0,-0.004338443844743989,2.2500166440822493,0.0,0.006476357579231262,0.04964261070013973,2.074665668694645,-1.5614706060890111,0.04964261070013973,0.0,0.0,0.09970182004191705,1.087102113944543,0.2,0.008986875624126143,6.609544576458437,0.2,-0.0,0.05593527747761147,0.0,-0.0062926667774717455,-1.6121606300671623,-1.6933703031805394,-0.0812096731133769,-0.0812096731133769,-0.5232708605179605,15.953282356262207,15.780753135681152,7.578802463860345,1,-0.01981756750731556,-0.05,-0.003732350442883927,15.784555435180664,1,-0.05061807632446289,-0.05,0.0008763517297400791,-1.6933703031805394,-1.6125096959175609,-1.6982993187331834,1,0.0029574093315864135,-0.003272486803168661,0.000247179886486217,0.04126008599996567
50.91336562299966,7.482447057030934,0.0,0.0,0.027076311773983085,1.300390280198054,0.0,-0.001687847755404744,2.2500061077200684,0.0,0.007326222490519285,0.04871992464589263,2.0735066966971383,-1.5665606736935873,0.04871992464589263,0.0,0.0,0.09881931920972946,1.092254027364592,0.2,0.008135872098386569,6.603713265061891,0.2,-0.0,0.0548958580315261,0.0,-0.006175933385633468,-1.6121606300671623,-1.6937680402867688,-0.08160741021960671,-0.08160741021960671,-0.5236025080225921,15.95674991607666,15.780753135681152,7.578802463860345,1,-0.019271081365882205,-0.05,-0.003520795541594506,15.784555435180664,1,-0.051658344268798825,-0.05,0.0009710119970290903,-1.6937680402867688,-1.6125096959175609,-1.6982993187331834,1,0.002718767067848793,-0.0031990763275608217,0.0001712644620023952,0.03951837700060423
51.01168364999921,7.486231969392331,0.0,0.0,0.02493852607853706,1.302504943120336,0.0,0.002230324528764923,2.249992570226697,0.0,0.008458810858428478,0.04700435953771572,2.0722133550399042,-1.5700055745514134,0.04700435953771572,0.0,0.0,0.09768879688473159,1.0991337709683326,0.2,0.003370507685884121,6.595093286036718,0.2,-0.0,0.05353799161578186,0.0,-0.006533632078066142,-1.6121606300671623,-1.6944183282883518,-0.08225769822118956,-0.08225769822118956,-0.5240976441397931,15.961352348327637,15.780753135681152,7.578802463860345,1,-0.018514098893602872,-0.05,-0.003241929922642504,15.784555435180664,1,-0.0530390739440918,-0.05,0.001121136407206141,-1.6944183282883518,-1.6125096959175609,-1.6982993187331834,1,0.0023285942668989533,-0.003099228760191351,4.047763024478772e-05,0.040025678999882075
51.11152435199983,7.487655974271383,0.0,0.0,0.024068640105255397,1.2992588980135429,0.0,0.0032283085749222453,2.249989622787491,0.0,0.008838864974677563,0.05046252874543108,2.0723514417969624,-1.5671268258825806,0.05046252874543108,0.0,0.0,0.09738840987973099,1.10199224236427,0.2,-0.0027347362384274702,6.592897721135172,0.2,0.0,0.05312972694303206,0.0,-0.002667198197600981,-1.6121606300671623,-1.6945837762517828,-0.08242314618462032,-0.08242314618462032,-0.5226939342293697,15.966636657714844,15.780753135681152,7.578802463860345,1,-0.018229297917792486,-0.05,-0.0030683880455872536,15.784555435180664,1,-0.05350685119628906,-0.05,0.0012215705555241384,-1.6945837762517828,-1.6125096959175609,-1.6982993187331834,1,0.0022293254888403613,-0.003039597133865292,-4.2847084964283925e-05,0.03895686800024123
51.21181160499964,7.4952449016132565,0.0,0.0,0.019371311353254025,1.3251776688448837,0.0,0.005485668476673143,2.249985822398943,0.0,0.011084363795816898,0.03948252684721616,2.068511950719146,-1.5936719752613708,0.03948252684721616,0.0,0.0,0.09459314147011051,1.116378764875814,0.2,0.008794889082427695,6.587931529351319,0.2,-0.0,0.05010526660457617,0.0,-0.010622739757360007,-1.6121606300671623,-1.69498263716552,-0.08282200709835763,-0.08282200709835763,-0.5242719618463676,15.973488807678223,15.780753135681152,7.578802463860345,1,-0.016711512449417754,-0.05,-0.002679331012832911,15.784555435180664,1,-0.056680011749267574,-0.05,0.0014483058415389607,-1.69498263716552,-1.6125096959175609,-1.6982993187331834,1,0.001990008940598109,-0.0029569604720090614,-0.00014098072156004744,0.040043466000497574
51.31159258199932,7.499185215595457,0.0,0.0,0.01714076330412336,1.3265346850915452,0.0,0.007280910029411062,2.2499833581446698,0.0,0.012880505993962288,0.03494897312509039,2.067770759961133,-1.5957579600079237,0.03494897312509039,0.0,0.0,0.0922708018427273,1.1235490242178625,0.2,0.002978591885608131,6.583981997935296,0.2,-0.0,0.04763417750925901,0.0,-0.012685204384168623,-1.6121606300671623,-1.6953403278541481,-0.08317969778698586,-0.08317969778698586,-0.5251327987358928,15.982428550720215,15.780753135681152,7.578802463860345,1,-0.015923449652977695,-0.05,-0.0023906134773094036,15.784555435180664,1,-0.059361934661865234,-0.05,0.0016640558126676272,-1.6953403278541481,-1.6125096959175609,-1.6982993187331834,1,0.0017753945274211701,-0.002907312405073431,-0.00020675131661671435,0.03975614899991342
51.41546462899987,7.500425523458868,0.0,0.0,0.016630066288989873,1.325100886451625,0.0,0.010612329038758805,2.24997647017028,0.0,0.015174493193626404,0.037195397810281305,2.0668869233599056,-1.595702015301923,0.037195397810281305,0.0,0.0,0.0893389822346039,1.125673851958689,0.2,-0.0005879808588297435,6.576652876114731,0.2,0.0,0.0444986934245865,0.0,-0.007303295614305188,-1.6121606300671623,-1.6960018323223247,-0.08384120225516245,-0.08384120225516245,-0.5233835201776704,15.994246482849121,15.780753135681152,7.578802463860345,1,-0.01567538808029543,-0.05,-0.002142126833146525,15.784555435180664,1,-0.0629073143005371,-0.05,0.0020321918309967146,-1.6960018323223247,-1.6125096959175609,-1.6982993187331834,1,0.0013784918465152174,-0.0028491599411881877,-0.00033654995769160804,0.04009256199969968
51.51142000299933,7.501555891869004,0.0,0.0,0.016173064939286778,1.3306611832430242,0.0,0.014734110649242033,2.2499682338261837,0.0,0.017547987401485443,0.019706707525770844,2.06477927822793,-1.6030292480230013,0.019706707525770844,0.0,0.0,0.08569043690573222,1.127340844677068,0.2,0.003291398700713097,6.567584956571668,0.2,-0.0,0.04088546970254806,0.0,-0.021178762176777218,-1.6121606300671623,-1.696878862655893,-0.08471823258873101,-0.08471823258873101,-0.5294446345087077,16.00777244567871,15.780753135681152,7.578802463860345,1,-0.015449314398268223,-0.05,-0.002052548115743392,15.784555435180664,1,-0.06696510314941406,-0.05,0.0022777379429998815,-1.696878862655893,-1.6125096959175609,-1.6982993187331834,1,0.0008522736463742131,-0.002822480406617936,-0.0004372563461620908,0.038910393999685766
51.61159765799948,7.503239056704836,0.0,0.0,0.015378892398749662,1.3338767002305707,0.0,0.01539163479390606,2.2499684527850508,0.0,0.018563373014330864,0.02809433707380974,2.064135124123798,-1.606527708850483,0.02809433707380974,0.0,0.0,0.08367061439200867,1.1300438410839837,0.2,0.0038012857927542756,6.566138403453407,0.2,-0.0,0.03906434482660668,0.0,-0.010970007752796941,-1.6121606300671623,-1.6970282825046672,-0.08486765243750494,-0.08486765243750494,-0.5259614045711813,16.016149520874023,15.780753135681152,7.578802463860345,1,-0.015112681431101827,-0.05,-0.0019351530484883227,15.784555435180664,1,-0.06947822570800781,-0.05,0.0025737179699219987,-1.6970282825046672,-1.6125096959175609,-1.6982993187331834,1,0.0007626217371097255,-0.002790829929734959,-0.0005453564794359358,0.039301161999901524
51.71155057899978,7.5044543044403245,0.0,0.0,0.014742280182226888,1.3350791795013013,0.0,0.01606714865088748,2.2499684365581385,0.0,0.019919410347938538,0.021283111122163318,2.0637093854398856,-1.6080727450874452,0.021283111122163318,0.0,0.0,0.08084397317305543,1.1321132975450139,0.2,0.002931481951264312,6.564652272968048,0.2,-0.0,0.03655473769507014,0.0,-0.01527162657290682,-1.6121606300671623,-1.6971988992348392,-0.08503826916767698,-0.08503826916767698,-0.5259626510715494,16.031003952026367,15.780753135681152,7.578802463860345,1,-0.014869631884004164,-0.05,-0.0018619527315435862,15.784555435180664,1,-0.07260303497314453,-0.05,0.0027526187976320894,-1.6971988992348392,-1.6125096959175609,-1.6982993187331834,1,0.0006602516990064977,-0.002772100742069494,-0.0005908826631982302,0.03988084600041475
51.81292221700005,7.509908922659478,0.0,0.0,0.011485819688644313,1.3501365992878551,0.0,0.014766800739486866,2.2499774153305427,0.0,0.02240166813135147,0.015403604073608926,2.0622128290684474,-1.6225120812676843,0.015403604073608926,0.0,0.0,0.07641919732191244,1.1421011411039745,0.2,0.008006422092188182,6.5675130383731295,0.2,0.0,0.03241051751433658,0.0,-0.017006913440727654,-1.6121606300671623,-1.6969568619754554,-0.08479623190829333,-0.08479623190829333,-0.5246113270949991,16.043087005615234,15.780753135681152,7.578802463860345,1,-0.013778708240173465,-0.05,-0.0016308990279155912,15.784555435180664,1,-0.0775594711303711,-0.05,0.003071614981282224,-1.6969568619754554,-1.6125096959175609,-1.6982993187331834,1,0.0008054740546368233,-0.0027428926395210644,-0.0006024205657748122,0.04041967700050009
51.9135977269998,7.511711760135705,0.0,0.0,0.010466970575937044,1.3421876918616023,0.0,0.014330984473855555,2.2499800309173725,0.0,0.023172687739133835,0.023877046819113235,2.0633697908860302,-1.614429634815546,0.023877046819113235,0.0,0.0,0.07520279473517606,1.1454709580224447,0.2,-0.0033106070816001755,6.568471834157519,0.2,-0.0,0.031218064197625336,0.0,-0.007341017378512104,-1.6121606300671623,-1.696861362393772,-0.0847007323266098,-0.0847007323266098,-0.5254388715860165,16.05403709411621,15.780753135681152,7.578802463860345,1,-0.013418140744928132,-0.05,-0.001448117001929565,15.784555435180664,1,-0.07910442352294922,-0.05,0.003268744864787276,-1.696861362393772,-1.6125096959175609,-1.6982993187331834,1,0.0008627738036468102,-0.002720056480203043,-0.0005877561001880671,0.03876950699941517
52.01175484199939,7.514458580969671,0.0,0.0,0.009390181990604238,1.346482714651176,0.0,0.01077639372583931,2.2499865336541287,0.0,0.024316854774951935,0.02123053146084527,2.064092820133129,-1.6170887212377032,0.02123053146084527,0.0,0.0,0.07185821640704043,1.1494389872725768,0.2,-0.0029717269166746824,6.576291933803154,0.2,0.0,0.028524816979253097,0.0,-0.007294285518407827,-1.6121606300671623,-1.6960846735056077,-0.0839240434384454,-0.0839240434384454,-0.5235099164782754,16.06070327758789,15.780753135681152,7.578802463860345,1,-0.012868776578134879,-0.05,-0.0012351207134997134,15.784555435180664,1,-0.08284435272216796,-0.05,0.003505955387437151,-1.6960846735056077,-1.6125096959175609,-1.6982993187331834,1,0.0013287871365454506,-0.0026743304520971513,-0.0005136932503124237,0.03993544200056931
52.11164611899949,7.514185510979412,0.0,0.0,0.009717109492110205,1.3457357012896682,0.0,0.009897252574508977,2.2499872011827766,0.0,0.024313660338521004,0.02369397582886193,2.0645311468952015,-1.6159078336066954,0.02369397582886193,0.0,0.0,0.0714703546426274,1.1486775088763934,0.2,-0.0029548436780459713,6.5782260443360805,0.2,0.0,0.028294016582463832,0.0,-0.004600040753601904,-1.6121606300671623,-1.6958716228600164,-0.0837109927928541,-0.0837109927928541,-0.5222712425698017,16.065059661865234,15.780753135681152,7.578802463860345,1,-0.012923390576186656,-0.05,-0.0011926227664938794,15.784555435180664,1,-0.08334846496582031,-0.05,0.003575705674980738,-1.6958716228600164,-1.6125096959175609,-1.6982993187331834,1,0.0014566175239002276,-0.002636765885143749,-0.0004626893081951574,0.0387736060001771
52.21164858699922,7.514994155782641,0.0,0.0,0.009585597657023182,1.354877397406875,0.0,0.008812122572968414,2.249988759876623,0.0,0.02441956289112568,0.024637578834628738,2.0639519678179665,-1.6242673598011854,0.024637578834628738,0.0,0.0,0.06998761679807927,1.1493333361309634,0.2,0.005533728133579055,6.58061333033947,0.2,-0.0,0.027340832344172155,0.0,-0.0027032535095434175,-1.6121606300671623,-1.6955271146620847,-0.08336648459492224,-0.08336648459492224,-0.5243390421659305,16.067665100097656,15.780753135681152,7.578802463860345,1,-0.01276166161554091,-0.05,-0.001186787764335155,15.784555435180664,1,-0.08493289947509765,-0.05,0.0036367236738182648,-1.6955271146620847,-1.6125096959175609,-1.6982993187331834,1,0.0016633224426592097,-0.0025713947209679523,-0.0003901143924683104,0.04013330500038137
52.311960616999386,7.516570224003588,0.0,0.0,0.008821922883732389,1.35413532692697,0.0,0.009494582155919274,2.249988856557034,0.0,0.02395365759730339,0.02733053216272539,2.0639478913882394,-1.6236537315254382,0.02733053216272539,0.0,0.0,0.0697734497968682,1.1518064107853383,0.2,0.0023169230267364098,6.579111919256978,0.2,-0.0,0.027491875319738884,0.0,-0.00016134315701349508,-1.6121606300671623,-1.6955865455754693,-0.08342591550830702,-0.08342591550830702,-0.5241063199969807,16.06830596923828,15.780753135681152,7.578802463860345,1,-0.012446447971351483,-0.05,-0.0011325040538341835,15.784555435180664,1,-0.08512516021728515,-0.05,0.003623579918404125,-1.6955865455754693,-1.6125096959175609,-1.6982993187331834,1,0.0016276638946284728,-0.002527610953000953,-0.00038149777378439854,0.039471805000175664
52.41540656199959,7.517676477815276,0.0,0.0,0.00832363236628977,1.3548462655327242,0.0,0.01008468345376667,2.249988834156691,0.0,0.023114696145057678,0.030495415160293735,2.0637882505057705,-1.6244495111058659,0.030495415160293735,0.0,0.0,0.0703313253525171,1.1535379294012218,0.2,0.0012948079036434216,6.577813696401714,0.2,-0.0,0.02832997752447565,0.0,0.0021654376358180836,-1.6121606300671623,-1.6956303342763166,-0.08346970420915412,-0.08346970420915412,-0.5239027053796275,16.065969467163086,15.780753135681152,7.578802463860345,1,-0.01222519720901385,-0.05,-0.0010514888899975938,15.784555435180664,1,-0.08442420959472656,-0.05,0.003537734878258313,-1.6956303342763166,-1.6125096959175609,-1.6982993187331834,1,0.0016013906741200845,-0.002462659774835712,-0.00039196551474352236,0.040091713000038
52.51140715499969,7.517357067922371,0.0,0.0,0.009017667462167079,1.3510275929364335,0.0,0.00980819060376266,2.2499882342955813,0.0,0.021681439131498337,0.03777279167598958,2.0645437014041654,-1.6203030322555556,0.03777279167598958,0.0,0.0,0.07218219444840215,1.1518531975368187,0.2,-0.0008384017313515972,6.578421980671723,0.2,-0.0,0.03030045319014229,0.0,0.007472338485847288,-1.6121606300671623,-1.6954571863627275,-0.08329655629556498,-0.08329655629556498,-0.5236485571793114,16.059106826782227,15.780753135681152,7.578802463860345,1,-0.012289079187594788,-0.05,-0.0010609330539586976,15.784555435180664,1,-0.08236541748046874,-0.05,0.003412981067234658,-1.6954571863627275,-1.6125096959175609,-1.6982993187331834,1,0.0017052794222735645,-0.0024182169523240963,-0.00039200323915875105,0.040619446999698994
52.61310665599922,7.517816720619572,0.0,0.0,0.008879749718243962,1.357232540343079,0.0,0.009931526098252751,2.249988269271605,0.0,0.02031228318810463,0.040721547517301324,2.063853978050708,-1.6263560919153681,0.040721547517301324,0.0,0.0,0.07377718396057464,1.1523310981453834,0.2,0.00488832200412012,6.578150642583844,0.2,-0.0,0.03207894046348201,0.0,0.008642607053819317,-1.6121606300671623,-1.6954069196810373,-0.08324628961387504,-0.08324628961387504,-0.5237452278967344,16.05276870727539,15.780753135681152,7.578802463860345,1,-0.012197148648154688,-0.05,-0.0010760779347771079,15.784555435180664,1,-0.08046398162841796,-0.05,0.0032291132633076743,-1.6954069196810373,-1.6125096959175609,-1.6982993187331834,1,0.0017354394312876665,-0.0023486632975774566,-0.0003923768990566747,0.03965588199935155
52.71203860700007,7.522802694199888,0.0,0.0,0.005999449806885252,1.3698042896201672,0.0,0.010779402393882235,2.2499914034055872,0.0,0.018364351242780685,0.0462129995900908,2.0621314190294973,-1.639036033134186,0.0462129995900908,0.0,0.0,0.07556542497163307,1.161120155745403,0.2,0.00866868810000563,6.57628531473346,0.2,-0.0,0.03432064423731143,0.0,0.011892355352779369,-1.6121606300671623,-1.6955064641870397,-0.08334583411987762,-0.08334583411987762,-0.5239261838084818,16.045679092407227,15.780753135681152,7.578802463860345,1,-0.011199953932091411,-0.05,-0.0009350400694911254,15.784555435180664,1,-0.07833709716796874,-0.05,0.0030259271936732093,-1.6955064641870397,-1.6125096959175609,-1.6982993187331834,1,0.0016757127276862515,-0.002304200318585142,-0.0004071161104011226,0.039637863999814726
52.81241372799923,7.528705283002876,0.0,0.0,0.002806263706786184,1.3739381214657902,0.0,0.012720880464220206,2.2499952583951925,0.0,0.015006924979388714,0.05392247181232779,2.061113313312794,-1.6437750862275984,0.05392247181232779,0.0,0.0,0.07902533652628264,1.1713464552465924,0.2,0.002570172377467917,6.572014062978717,0.2,-0.0,0.03841104692813636,0.0,0.015511424884191435,-1.6121606300671623,-1.6958154077128946,-0.08365477764573237,-0.08365477764573237,-0.5252369752731714,16.031883239746094,15.780753135681152,7.578802463860345,1,-0.010019436171493902,-0.05,-0.0006055031562237973,15.784555435180664,1,-0.0741983413696289,-0.05,0.002618620647459042,-1.6958154077128946,-1.6125096959175609,-1.6982993187331834,1,0.0014903466121732655,-0.002240938995832548,-0.000453347159983803,0.0395968670000002
52.91346760799934,7.529507563310763,0.0,0.0,0.0025452802054635485,1.3759923876495723,0.0,0.014754036672363425,2.2499950125347272,0.0,0.014045553281903267,0.05067153061200379,2.060217993370849,-1.6466130167989415,0.05067153061200379,0.0,0.0,0.07959780570789111,1.1725322005088392,0.2,0.0034312766713167327,6.5675411193208015,0.2,-0.0,0.03933135145559271,0.0,0.011340179156411077,-1.6121606300671623,-1.6962035239243771,-0.08404289385721508,-0.08404289385721508,-0.527639595433305,16.025999069213867,15.780753135681152,7.578802463860345,1,-0.009858980109916439,-0.05,-0.0004644604886603081,15.784555435180664,1,-0.0732564926147461,-0.05,0.0023969929034944313,-1.6962035239243771,-1.6125096959175609,-1.6982993187331834,1,0.0012574768852837703,-0.0022039895831868126,-0.000502615722839505,0.03952806500001316
53.01174579599956,7.5313045396192875,0.0,0.0,0.002081521611507319,1.3761350535563803,0.0,0.020341454984380284,2.249994377975564,0.0,0.011167390272021294,0.05779012351522035,2.058325305869505,-1.6490965168132141,0.05779012351522035,0.0,0.0,0.08217614325570928,1.1745769606328087,0.2,0.0015031522703681042,6.555248799034365,0.2,-0.0,0.04260525179021279,0.0,0.015184871725007562,-1.6123351629923615,-1.6973408406606585,-0.08500567766829725,-0.08500567766829725,-0.5281499852679313,16.01807403564453,15.780753135681152,7.578802463860345,1,-0.009499584848211562,-0.05,-0.0003369214114701385,15.784555435180664,1,-0.07005558013916015,-0.05,0.00202344794683377,-1.6973408406606585,-1.6125096959175609,-1.6982993187331834,1,0.0005750868435149492,-0.0021716945857442743,-0.000659279757165048,0.03815789700001915
53.11164322999957,7.53140065301703,0.0,0.0,0.002536467567964034,1.3708703891380176,0.0,0.023805870124794206,2.2499919825248607,0.0,0.009825501590967178,0.051988293521931614,2.0577797220219063,-1.645385110202781,0.051988293521931614,0.0,0.0,0.08294731916745225,1.1736653034977989,0.2,-0.002870161910470217,6.547627085725453,0.2,-0.0,0.043873090545891044,0.0,0.008115202976040568,-1.6123351629923615,-1.6980751369483138,-0.08573997395595256,-0.08573997395595256,-0.5278778122743377,16.013507843017578,15.780753135681152,7.578802463860345,1,-0.009480362168662992,-0.05,-0.0003113210073674761,15.784555435180664,1,-0.06885452270507812,-0.05,0.0017655190334303387,-1.6980751369483138,-1.6125096959175609,-1.6982993187331834,1,0.00013450907092176222,-0.0021647977555725897,-0.0007871955743032666,0.0401527129997703
53.21198961099981,7.530685702384524,0.0,0.0,0.0036120187542496352,1.3646568138371633,0.0,0.028930290782286466,2.2499861238727785,0.0,0.00911600049585104,0.044624141708010684,2.056692387723778,-1.6415669951151286,0.044624141708010684,0.0,0.0,0.0821927207455248,1.1708975332073763,0.2,-0.006351859544936081,6.53635336027897,0.2,-0.0,0.04384603214980426,0.0,0.0007781095582064246,-1.6123351629923615,-1.6992152567659329,-0.08688009377357142,-0.08688009377357142,-0.5333675697587724,16.0152645111084,15.780753135681152,7.578802463860345,1,-0.009623352295164268,-0.05,-0.00035876431770833563,15.784555435180664,1,-0.06921272277832032,-0.05,0.00152768002421918,-1.6992152567659329,-1.6125096959175609,-1.6982993187331834,1,-0.0005495628196496849,-0.002174463330548019,-0.0009710684532959183,0.040141339999536285
53.31154583499938,7.530436543988315,0.0,0.0,0.003975466525741756,1.3709580730067445,0.0,0.030722493975800378,2.249983780987241,0.0,0.00922298151999712,0.043158454770576275,2.0551965453058196,-1.648672257548792,0.043158454770576275,0.0,0.0,0.081647528721977,1.1698820845748512,0.2,0.0009506475395587135,6.53241051325324,0.2,0.0,0.04345472832118793,0.0,-0.00029627355061165485,-1.6123351629923615,-1.6996317849616942,-0.08729662196933274,-0.08729662196933274,-0.5256178662685297,16.018613815307617,15.780753135681152,7.578802463860345,1,-0.009673183974406108,-0.05,-0.00041671004911392185,15.784555435180664,1,-0.0696401596069336,-0.05,0.0014570269072584677,-1.6996317849616942,-1.6125096959175609,-1.6982993187331834,1,-0.0007994797371064788,-0.002195787099133581,-0.001094935242751326,0.04007356300007814
53.41430488900005,7.529835259744942,0.0,0.0,0.0048626115671346224,1.3657750851322432,0.0,0.03775686001750729,2.2499756174022503,0.0,0.009865714237093925,0.03902247509560601,2.0531857794370114,-1.646863691138479,0.03902247509560601,0.0,0.0,0.08026684593648975,1.1675041026244848,0.2,-0.001918341750901215,6.516934907961485,0.2,-0.0,0.042240679019637496,0.0,-0.003218203924031488,-1.6123351629923615,-1.7012538250657137,-0.0889186620733522,-0.0889186620733522,-0.5314895805178262,16.021312713623047,15.780753135681152,7.578802463860345,1,-0.009793440823080602,-0.05,-0.0005049088448692852,15.784555435180664,1,-0.07102718353271484,-0.05,0.0014608315914348684,-1.7012538250657137,-1.6125096959175609,-1.6982993187331834,1,-0.0017727037995181492,-0.0022541517333998884,-0.0013109431319846862,0.03885751799953141
53.511434046999966,7.530088731629907,0.0,0.0,0.00489451294393605,1.3714418390056538,0.0,0.041567161931067846,2.24997298159167,0.0,0.009792488068342209,0.04103257992494142,2.050851708805064,-1.6544601549022167,0.04103257992494142,0.0,0.0,0.08033627001600965,1.1674596539713034,0.2,0.003752728382167019,6.508552243751652,0.2,-0.0,0.04232626916860047,0.0,-0.0012936892436590439,-1.6123351629923615,-1.7022180280597834,-0.08988286506742194,-0.08988286506742194,-0.5309157172184139,16.021089553833008,15.780753135681152,7.578802463860345,1,-0.009742746446087658,-0.05,-0.0005517051650163169,15.784555435180664,1,-0.07096023559570312,-0.05,0.0014623172769397843,-1.7022180280597834,-1.6125096959175609,-1.6982993187331834,1,-0.002351225595959994,-0.002313821588367277,-0.0014685415432449383,0.0403979660004552
53.61374494899974,7.534467083117138,0.0,0.0,0.002404020198656636,1.3716425822402076,0.0,0.042679756388128445,2.249986382182668,0.0,0.01019466482102871,0.04148923058490606,2.0501978709630704,-1.655454856926195,0.04148923058490606,0.0,0.0,0.08035058096524983,1.1751362283743747,0.2,-0.0037354099623522286,6.506104535946118,0.2,0.0,0.04209354968653267,0.0,-0.0006043191016266109,-1.6123351629923615,-1.7026052149555806,-0.09027005196321891,-0.09027005196321891,-0.5291592184972823,16.021255493164062,15.780753135681152,7.578802463860345,1,-0.008867076148641396,-0.05,-0.00040387841461198123,15.784555435180664,1,-0.07101001739501953,-0.05,0.0015007729260737253,-1.7026052149555806,-1.6125096959175609,-1.6982993187331834,1,-0.0025835377334383126,-0.002416634883508177,-0.0016127578573329124,0.04074225000022125
53.71162197600006,7.540914122404253,0.0,0.0,-0.0011178854786993223,1.4092978175697817,0.0,0.04368010386624432,2.250006475256584,0.0,0.01033270824700594,0.043656370541833765,2.044443351067121,-1.693783003097193,0.043656370541833765,0.0,0.0,0.0808700425865554,1.18608922089794,0.2,0.02295558338422204,6.503903771494263,0.2,-0.0,0.04232240060372968,0.0,0.0013339699381040876,-1.6123351629923615,-1.703092730878893,-0.09075756788653155,-0.09075756788653155,-0.5322776864004001,16.0196533203125,15.780753135681152,7.578802463860345,1,-0.007577668291218487,-0.05,-0.00020309509803816513,15.784555435180664,1,-0.07052936553955078,-0.05,0.0015240587855758273,-1.703092730878893,-1.6125096959175609,-1.6982993187331834,1,-0.0028760472874257647,-0.0024896497195099057,-0.0016698240853332633,0.040264859000672004
53.81393598399973,7.548843166185609,0.0,0.0,-0.005605486399628414,1.422696401784235,0.0,0.04159305530512505,2.2500308854351188,0.0,0.011179261840879917,0.03773055486704268,2.0431745809257857,-1.7064998297452283,0.03773055486704268,0.0,0.0,0.08009655726971417,1.2003141698969009,0.2,0.02215306005112939,6.508495278328725,0.2,0.0,0.04135037725730055,0.0,-0.0036198223902578685,-1.6123351629923615,-1.7028147511517258,-0.09047958815936408,-0.09047958815936408,-0.5291255335496883,16.022653579711914,15.780753135681152,7.578802463860345,1,-0.005991859534947253,-0.05,0.0002678763796636787,15.784555435180664,1,-0.071429443359375,-0.05,0.0016000142873656166,-1.7028147511517258,-1.6125096959175609,-1.6982993187331834,1,-0.002709259451125412,-0.0026017038140839486,-0.0016727786424502232,0.040315432000170404
53.913468316000035,7.556331709625306,0.0,0.0,-0.00960587371793697,1.4300702190076522,0.0,0.0398097154956503,2.2500506075056648,0.0,0.011817806400358677,0.03647091988934761,2.0426329705261956,-1.7133239960230922,0.03647091988934761,0.0,0.0,0.07948828908278482,1.2131026091534254,0.2,0.016757876678296278,6.51241862590957,0.2,0.0,0.04060228960945569,0.0,-0.004131369720108079,-1.6123351629923615,-1.7025757798611443,-0.09024061686878282,-0.09024061686878282,-0.5290184071938303,16.025089263916016,15.780753135681152,7.578802463860345,1,-0.004494150847007816,-0.05,0.0006456734939067389,15.784555435180664,1,-0.07216014862060546,-0.05,0.001673476531946285,-1.7025757798611443,-1.6125096959175609,-1.6982993187331834,1,-0.002565876676776524,-0.002670302694182635,-0.0016362389068831653,0.03955528599999525
54.01172449399928,7.5643830792200015,0.0,0.0,-0.013277635071099251,1.4341260523849295,0.0,0.03732892441815966,2.2500655228365396,0.0,0.01230432279407978,0.03601035173119018,2.042747032323697,-1.716594580301237,0.03601035173119018,0.0,0.0,0.07857527393045997,1.225700158867187,0.2,0.008241681721007423,6.517876366280049,0.2,0.0,0.03976257068182811,0.0,-0.0037522189506379302,-1.6123351629923615,-1.70220756989171,-0.08987240689934861,-0.08987240689934861,-0.5292034332121447,16.02867317199707,15.780753135681152,7.578802463860345,1,-0.0028838769280687517,-0.05,0.0011786219203460152,15.784555435180664,1,-0.07323532104492188,-0.05,0.0017707708951412205,-1.70220756989171,-1.6125096959175609,-1.6982993187331834,1,-0.002344950695115999,-0.0027665507001421305,-0.001554938037578353,0.038776329000029364
54.11173045799933,7.566661558430486,0.0,0.0,-0.014214149139223593,1.4261619799074885,0.0,0.036685078854480295,2.25006891377102,0.0,0.012341776862740517,0.03826770939929305,2.0439557930930725,-1.7085060215093224,0.03826770939929305,0.0,0.0,0.07838918103087741,1.2292401927611072,0.2,-0.003256071345129889,6.519292826520144,0.2,-0.0,0.039628442500882134,0.0,-0.0013607331015890874,-1.6123351629923615,-1.7021128492289193,-0.08977768623655802,-0.08977768623655802,-0.5301111028542885,16.029409408569336,15.780753135681152,7.578802463860345,1,-0.0024281810859719147,-0.05,0.0014388976065826118,15.784555435180664,1,-0.07348766326904296,-0.05,0.001810520489864344,-1.7021128492289193,-1.6125096959175609,-1.6982993187331834,1,-0.0022881182974415102,-0.0028284289773221,-0.0015053285621617007,0.03881661899958999
54.21290059399962,7.570737140187164,0.0,0.0,-0.015047868349787314,1.4358130893476273,0.0,0.032642754831457704,2.2500648819088793,0.0,0.012128428556025028,0.03851464800306426,2.0440023967238696,-1.7165096569867215,0.03851464800306426,0.0,0.0,0.07782092838379803,1.2333209719401954,0.2,0.0023513716090697388,6.528185939370793,0.2,-0.0,0.0394154998966638,0.0,-0.0009008518935995364,-1.6121606300671623,-1.701347509419166,-0.08918687935200342,-0.08918687935200342,-0.5306917109980728,16.031442642211914,15.780753135681152,7.578802463860345,1,-0.0016130647346361826,-0.05,0.0016861744845331579,15.784555435180664,1,-0.074066162109375,-0.05,0.0018166682058159277,-1.701347509419166,-1.6125096959175609,-1.6982993187331834,1,-0.0018289144115894995,-0.0029061794835437563,-0.0013873538634062415,0.040749103000052855
54.311524431999715,7.569905458430594,0.0,0.0,-0.013357923986707865,1.4234676510728592,0.0,0.027014932828792897,2.250047670796051,0.0,0.012107336893677711,0.03553108940685291,2.0475909729073183,-1.7018654124736419,0.03553108940685291,0.0,0.0,0.0767275161930657,1.2292037386344161,0.2,-0.005832496506127233,6.540567147776656,0.2,0.0,0.03877210757963279,0.0,-0.0032410181727798833,-1.6121606300671623,-1.7001740357502069,-0.08801340568304461,-0.08801340568304461,-0.5241694144392542,16.035964965820312,15.780753135681152,7.578802463860345,1,-0.0017794010859502052,-0.05,0.0016679477204711317,15.784555435180664,1,-0.07515907287597656,-0.05,0.0018163673513374608,-1.7001740357502069,-1.6125096959175609,-1.6982993187331834,1,-0.0011248302102140784,-0.002941545049872435,-0.0012567292500323868,0.04017666100025963
